File: biologic_multiple_techniques_dataset/multiple_techniques_dataset_01_02_CVA_C01.mpt
EC-Lab ASCII FILE
Nb header lines : 66

Cyclic Voltammetry Advanced

Run on channel : 1 (SN 5836)
User :
Electrode connection : standard
Ewe ctrl range : min = -10.00 V, max = 10.00 V
Ewe,I filtering : <None>
Safety Limits :
	Do not start on E overload
Channel : Grounded
Acquisition started on : 05/05/2022 15:55:02
Saved on :
	File : multiple_techniques_dataset_01_02_CVA_C01.mpr
	Directory : C:\Users\Spectro Inlets\Desktop\Zilien Data Dir\multiple_techniques_dataset\
	Host : 192.168.1.105
Device : SP-200 (SN 0763)
Address : USB
EC-Lab for windows v11.27 (software)
Internet server v11.25 (firmware)
Command interpretor v11.27 (firmware)
Electrode material :
Initial state :
Electrolyte :
Comments :
Cable : standard
Electrode surface area : 0.001 cm²
Characteristic mass : 0.001 g
Equivalent Weight : 0.000 g/eq.
Density : 0.000 g/cm3
Cycle Definition : Charge/Discharge alternance
Ns                  0                   1                   2
Ei (V)              0.000               0.000               0.000
vs.                 Eoc                 Eoc                 Eoc
ti (h:m:s)          0:00:10.0000        0:00:10.0000        0:00:5.0000
dti (s)             1.0000              1.0000              1.0000
dE/dt               20.000              200.000             50.000
dE/dt unit          mV/s                mV/s                mV/s
E1 (V)              1.700               1.700               1.700
vs.                 Ref                 Ref                 Ref
t1 (h:m:s)          0:00:0.0000         0:00:0.0000         0:00:0.0000
dt1 (s)             0.1000              0.1000              0.1000
Step percent        80                  80                  80
N                   20                  20                  40
E range min (V)     -10.000             -10.000             -10.000
E range max (V)     10.000              10.000              10.000
I Range             100 µA              100 µA              100 µA
I Range min         Unset               Unset               Unset
I Range max         Unset               Unset               Unset
I Range init        Unset               Unset               Unset
Bandwidth           1                   1                   1
E2 (V)              0.010               0.010               0.010
vs.                 Ref                 Ref                 Ref
t2 (h:m:s)          0:00:0.0000         0:00:0.0000         0:00:0.0000
dt2 (s)             0.1000              0.1000              0.1000
nc cycles           1                   1                   1
nr                  1                   1                   1
Reverse Scan        1                   1                   1
Ef (V)              0.900               0.900               0.900
vs.                 Ref                 Ref                 Ref
tf (h:m:s)          0:00:0.0000         0:00:0.0000         0:00:0.0000
dtf (s)             0.1000              0.1000              0.1000

mode	ox/red	error	control changes	Ns changes	counter inc.	time/s	control/V	Ewe/V	<I>/mA	cycle number	(Q-Qo)/C	I Range	Rcmp/Ohm	P/W
2	0	0	0	0	0	28.6816	0.917919	0.917703	-0.000437639	1	0.0000000E+000	41	0.0000000E+000	-4.01623e-07
2	0	0	0	0	0	33.6816	0.917919	0.918803	-0.000126506	1	-1.18298e-06	41	0.0000000E+000	-1.16234e-07
2	0	0	0	0	0	38.6982	0.917919	0.918597	-6.33013e-05	1	-1.59845e-06	41	0.0000000E+000	-5.81484e-08
2	1	0	0	0	0	40.2057	0.94807	0.948277	0.000703639	1	-6.65283e-07	41	0.0000000E+000	6.67245e-07
2	1	0	1	0	0	41.8715	0.981386	0.981494	0.00113383	1	1.05812e-06	41	0.0000000E+000	1.11285e-06
2	1	0	0	0	0	43.5373	1.0147	1.01483	0.00168678	1	3.57414e-06	41	0.0000000E+000	1.71179e-06
2	1	0	1	0	0	45.2031	1.04802	1.04835	0.00257483	1	7.27203e-06	41	0.0000000E+000	2.69932e-06
2	1	0	0	0	0	46.8689	1.08133	1.08161	0.00356401	1	1.2588e-05	41	0.0000000E+000	3.85485e-06
2	1	0	1	0	0	48.5347	1.11465	1.11481	0.00445545	1	1.94792e-05	41	0.0000000E+000	4.96699e-06
2	1	0	0	0	0	50.2005	1.14797	1.14822	0.00523755	1	2.7768e-05	41	0.0000000E+000	6.01387e-06
2	1	0	1	0	0	51.8663	1.18128	1.1815	0.00593113	1	3.7289e-05	41	0.0000000E+000	7.00763e-06
2	1	0	0	0	0	53.5321	1.2146	1.2149	0.00651184	1	4.78678e-05	41	0.0000000E+000	7.91125e-06
2	1	0	1	0	0	55.1979	1.24791	1.24808	0.00697168	1	5.93182e-05	41	0.0000000E+000	8.70121e-06
2	1	0	0	0	0	56.8637	1.28123	1.28135	0.0073403	1	7.14566e-05	41	0.0000000E+000	9.40552e-06
2	1	0	1	0	0	58.5295	1.31455	1.31477	0.00759615	1	8.41082e-05	41	0.0000000E+000	9.98721e-06
2	1	0	0	0	0	60.1953	1.34786	1.34804	0.00777664	1	9.71186e-05	41	0.0000000E+000	1.04832e-05
2	1	0	1	0	0	61.8611	1.38118	1.38153	0.00792754	1	0.000110399	41	0.0000000E+000	1.09521e-05
2	1	0	0	0	0	63.5269	1.41449	1.41477	0.00812816	1	0.00012397	41	0.0000000E+000	1.14995e-05
2	1	0	0	0	0	65.1928	1.44781	1.44815	0.00852797	1	0.000138028	41	0.0000000E+000	1.23498e-05
2	1	0	1	0	0	66.8586	1.48113	1.48131	0.00928668	1	0.000153014	41	0.0000000E+000	1.37565e-05
2	1	0	0	0	0	68.5244	1.51444	1.51475	0.0107081	1	0.000169756	41	0.0000000E+000	1.62201e-05
2	1	0	1	0	0	70.1902	1.54776	1.54805	0.0134033	1	0.000189823	41	0.0000000E+000	2.0749e-05
2	1	0	0	0	0	71.856	1.58108	1.58141	0.0185934	1	0.00021626	41	0.0000000E+000	2.94038e-05
2	1	0	1	0	0	73.5218	1.61439	1.61451	0.0285657	1	0.000254948	41	0.0000000E+000	4.61198e-05
2	1	0	0	0	0	75.1876	1.64771	1.64791	0.0476842	1	0.000317125	41	0.0000000E+000	7.85793e-05
2	1	0	1	0	0	76.8534	1.68102	1.6814	0.0846081	1	0.00042456	41	0.0000000E+000	0.00014226
2	1	0	1	0	0	77.8108	1.69951	1.69933	0.116666	1	0.000521388	41	0.0000000E+000	0.000198254
2	1	0	1	0	0	79.3183	1.66936	1.66967	0.0343479	1	0.000616678	41	0.0000000E+000	5.73496e-05
2	1	0	0	0	0	80.9841	1.63605	1.63628	0.012464	1	0.000651885	41	0.0000000E+000	2.03947e-05
2	1	0	1	0	0	82.6499	1.60273	1.60303	0.00514685	1	0.000665318	41	0.0000000E+000	8.25055e-06
2	1	0	0	0	0	84.3157	1.56942	1.56962	0.002362	1	0.000671009	41	0.0000000E+000	3.70744e-06
2	1	0	1	0	0	85.9815	1.5361	1.5365	0.00120852	1	0.000673637	41	0.0000000E+000	1.85689e-06
2	1	0	0	0	0	87.6473	1.50278	1.50322	0.000692037	1	0.000674952	41	0.0000000E+000	1.04029e-06
2	1	0	1	0	0	89.3131	1.46947	1.46972	0.000424728	1	0.000675651	41	0.0000000E+000	6.2423e-07
2	0	0	0	0	0	90.9789	1.43615	1.43649	0.000265243	1	0.000676002	41	0.0000000E+000	3.81019e-07
2	0	0	1	0	0	92.6447	1.40283	1.40303	0.000149128	1	0.000676125	41	0.0000000E+000	2.09232e-07
2	1	0	0	0	0	94.3105	1.36952	1.36982	4.49163e-05	1	0.000676073	41	0.0000000E+000	6.1527e-08
2	1	0	1	0	0	95.9763	1.3362	1.33637	-4.61257e-05	1	0.000675858	41	0.0000000E+000	-6.1641e-08
2	1	0	1	0	0	97.6422	1.30288	1.30304	-0.000136089	1	0.000675497	41	0.0000000E+000	-1.77329e-07
2	1	0	0	0	0	99.308	1.26957	1.26965	-0.000236463	1	0.000674983	41	0.0000000E+000	-3.00225e-07
2	0	0	1	0	0	100.974	1.23625	1.23648	-0.00032416	1	0.000674315	41	0.0000000E+000	-4.00817e-07
2	0	0	0	0	0	102.64	1.20294	1.20312	-0.000434755	1	0.000673482	41	0.0000000E+000	-5.23064e-07
2	0	0	1	0	0	104.305	1.16962	1.16976	-0.000545722	1	0.000672469	41	0.0000000E+000	-6.38361e-07
2	0	0	0	0	0	105.971	1.13631	1.13655	-0.000691112	1	0.000671243	41	0.0000000E+000	-7.8548e-07
2	0	0	1	0	0	107.637	1.10299	1.10319	-0.000844823	1	0.000669771	41	0.0000000E+000	-9.32001e-07
2	0	0	0	0	0	109.303	1.06967	1.06988	-0.00102953	1	0.000668012	41	0.0000000E+000	-1.10147e-06
2	0	0	1	0	0	110.969	1.03636	1.03655	-0.00127688	1	0.000665891	41	0.0000000E+000	-1.32355e-06
2	0	0	0	0	0	112.634	1.00304	1.0032	-0.0015823	1	0.000663318	41	0.0000000E+000	-1.58737e-06
2	0	0	1	0	0	114.3	0.969725	0.969905	-0.00196303	1	0.000660183	41	0.0000000E+000	-1.90396e-06
2	0	0	0	0	0	115.966	0.936409	0.936515	-0.00247432	1	0.000656301	41	0.0000000E+000	-2.31723e-06
2	0	0	1	0	0	117.632	0.903093	0.903296	-0.00319199	1	0.000651414	41	0.0000000E+000	-2.88331e-06
2	0	0	0	0	0	119.298	0.869777	0.870031	-0.00424806	1	0.000645074	41	0.0000000E+000	-3.69594e-06
2	0	0	1	0	0	120.963	0.836461	0.836592	-0.00596539	1	0.000636487	41	0.0000000E+000	-4.9906e-06
2	0	0	0	0	0	122.629	0.803145	0.803376	-0.00916988	1	0.000623955	41	0.0000000E+000	-7.36686e-06
2	0	0	1	0	0	124.295	0.769829	0.770104	-0.0155947	1	0.000603654	41	0.0000000E+000	-1.20096e-05
2	0	0	0	0	0	125.961	0.736513	0.736706	-0.023934	1	0.000570024	41	0.0000000E+000	-1.76323e-05
2	0	0	1	0	0	127.627	0.703197	0.703449	-0.0197294	1	0.000531226	41	0.0000000E+000	-1.38786e-05
2	0	0	0	0	0	129.292	0.669881	0.670181	-0.00966309	1	0.000507202	41	0.0000000E+000	-6.47602e-06
2	0	0	1	0	0	130.958	0.636565	0.636768	-0.00484035	1	0.00049556	41	0.0000000E+000	-3.08218e-06
2	0	0	0	0	0	132.624	0.603249	0.603463	-0.00291358	1	0.000489144	41	0.0000000E+000	-1.75824e-06
2	0	0	1	0	0	134.29	0.569933	0.570186	-0.00208136	1	0.000484878	41	0.0000000E+000	-1.18676e-06
2	0	0	0	0	0	135.956	0.536617	0.536937	-0.0016714	1	0.000481603	41	0.0000000E+000	-8.97436e-07
2	0	0	1	0	0	137.621	0.503301	0.503338	-0.00147297	1	0.000478808	41	0.0000000E+000	-7.414e-07
2	0	0	0	0	0	139.287	0.469985	0.470334	-0.00137875	1	0.00047625	41	0.0000000E+000	-6.48474e-07
2	0	0	1	0	0	140.953	0.436667	0.436921	-0.00131897	1	0.000473822	41	0.0000000E+000	-5.76286e-07
2	0	0	0	0	0	142.619	0.403351	0.403611	-0.001354	1	0.000471416	41	0.0000000E+000	-5.4649e-07
2	0	0	1	0	0	144.285	0.370035	0.370307	-0.00154256	1	0.000468826	41	0.0000000E+000	-5.71219e-07
2	0	0	0	0	0	145.95	0.336719	0.336803	-0.00202626	1	0.00046571	41	0.0000000E+000	-6.82449e-07
2	0	0	1	0	0	147.616	0.303403	0.303473	-0.00303823	1	0.000461399	41	0.0000000E+000	-9.22022e-07
2	1	0	0	0	0	149.282	0.270087	0.270293	-0.00418784	1	0.000455205	41	0.0000000E+000	-1.13194e-06
2	1	0	1	0	0	150.948	0.236771	0.236759	-0.0046629	1	0.000447725	41	0.0000000E+000	-1.10399e-06
2	1	0	0	0	0	152.614	0.203455	0.203482	-0.0049019	1	0.000439777	41	0.0000000E+000	-9.97446e-07
2	0	0	1	0	0	154.279	0.170139	0.170146	-0.00555885	1	0.00043114	41	0.0000000E+000	-9.45818e-07
2	0	0	0	0	0	155.945	0.136823	0.137016	-0.00715609	1	0.00042069	41	0.0000000E+000	-9.80496e-07
2	0	0	1	0	0	157.611	0.103507	0.103511	-0.00846156	1	0.000407428	41	0.0000000E+000	-8.75864e-07
2	0	0	0	0	0	159.277	0.0701914	0.0703689	-0.00897549	1	0.000393172	41	0.0000000E+000	-6.31595e-07
2	0	0	1	0	0	160.943	0.0368755	0.0369742	-0.0213113	1	0.000372055	41	0.0000000E+000	-7.87966e-07
2	0	0	0	0	0	162.278	0.0100561	0.0101493	-0.195273	1	0.000277791	41	0.0000000E+000	-1.98189e-06
2	1	0	0	0	1	163.469	0.0338762	0.0341544	0.0211901	1	0.000304786	41	0.0000000E+000	7.23737e-07
2	1	0	1	0	1	165.135	0.0671923	0.0674902	0.00826904	1	0.000327009	41	0.0000000E+000	5.5808e-07
2	0	0	0	0	1	166.801	0.100508	0.100757	0.00567466	1	0.000337895	41	0.0000000E+000	5.71764e-07
2	0	0	1	0	1	168.467	0.133826	0.134065	0.004977	1	0.000346845	41	0.0000000E+000	6.6724e-07
2	0	0	0	0	1	170.132	0.167142	0.167342	0.00384598	1	0.000354125	41	0.0000000E+000	6.43595e-07
2	0	0	1	0	1	171.798	0.200458	0.200815	0.00362438	1	0.000360175	41	0.0000000E+000	7.2783e-07
2	0	0	0	0	1	173.464	0.233774	0.234088	0.00342211	1	0.000366119	41	0.0000000E+000	8.01075e-07
2	0	0	1	0	1	175.13	0.26709	0.267308	0.00356507	1	0.000371869	41	0.0000000E+000	9.52971e-07
2	0	0	0	0	1	176.796	0.300406	0.300582	0.00328731	1	0.000377749	41	0.0000000E+000	9.88106e-07
2	0	0	1	0	1	178.461	0.333722	0.333991	0.00163293	1	0.000381994	41	0.0000000E+000	5.45384e-07
2	0	0	0	0	1	180.127	0.367038	0.367184	0.000634845	1	0.000383894	41	0.0000000E+000	2.33105e-07
2	1	0	1	0	1	181.793	0.400354	0.400735	0.000348791	1	0.000384854	41	0.0000000E+000	1.39773e-07
2	1	0	0	0	1	183.459	0.43367	0.433844	0.000301656	1	0.000385577	41	0.0000000E+000	1.30872e-07
2	0	0	1	0	1	185.125	0.466986	0.467211	0.000350369	1	0.000386318	41	0.0000000E+000	1.63696e-07
2	1	0	0	0	1	186.79	0.500302	0.500388	0.000418105	1	0.000387157	41	0.0000000E+000	2.09215e-07
2	1	0	1	0	1	188.456	0.533618	0.533868	0.000482663	1	0.000388116	41	0.0000000E+000	2.57678e-07
2	1	0	0	0	1	190.122	0.566934	0.567262	0.000559433	1	0.000389187	41	0.0000000E+000	3.17345e-07
2	1	0	1	0	1	191.788	0.60025	0.600435	0.000668338	1	0.000390401	41	0.0000000E+000	4.01293e-07
2	1	0	0	0	1	193.454	0.633566	0.633794	0.000860078	1	0.000391869	41	0.0000000E+000	5.45112e-07
2	1	0	1	0	1	195.119	0.666882	0.666939	0.00110176	1	0.0003937	41	0.0000000E+000	7.34807e-07
2	1	0	0	0	1	196.785	0.700198	0.700258	0.00127812	1	0.000395892	41	0.0000000E+000	8.95011e-07
2	1	0	1	0	1	198.451	0.733514	0.733826	0.00133234	1	0.00039827	41	0.0000000E+000	9.77704e-07
2	1	0	0	0	1	200.117	0.76683	0.767096	0.0013708	1	0.000400708	41	0.0000000E+000	1.05153e-06
2	1	0	1	0	1	201.783	0.800146	0.800322	0.00156602	1	0.000403304	41	0.0000000E+000	1.25332e-06
2	1	0	0	0	1	203.448	0.833462	0.833608	0.00222516	1	0.000406599	41	0.0000000E+000	1.85491e-06
2	1	0	1	0	1	205.114	0.866778	0.867025	0.00307794	1	0.000411216	41	0.0000000E+000	2.66865e-06
2	1	0	0	0	1	206.78	0.900094	0.900199	0.00370731	1	0.00041707	41	0.0000000E+000	3.33732e-06
2	1	0	0	0	1	207.863	0.92175	0.921994	0.00407536	2	0.000421414	41	0.0000000E+000	3.75746e-06
2	1	0	1	0	1	209.529	0.955066	0.955163	0.00448937	2	0.000428746	41	0.0000000E+000	4.28808e-06
2	1	0	0	0	1	211.194	0.988382	0.988452	0.00476049	2	0.000436637	41	0.0000000E+000	4.70551e-06
2	1	0	1	0	1	212.86	1.0217	1.022	0.00495566	2	0.000444906	41	0.0000000E+000	5.06468e-06
2	1	0	0	0	1	214.526	1.05501	1.05521	0.00511874	2	0.000453471	41	0.0000000E+000	5.40135e-06
2	1	0	1	0	1	216.192	1.08833	1.08852	0.00533148	2	0.000462356	41	0.0000000E+000	5.80344e-06
2	1	0	0	0	1	217.858	1.12165	1.12192	0.00555901	2	0.000471616	41	0.0000000E+000	6.23679e-06
2	1	0	1	0	1	219.523	1.15496	1.15536	0.0057913	2	0.000481271	41	0.0000000E+000	6.69103e-06
2	1	0	0	0	1	221.189	1.18828	1.18858	0.00601683	2	0.000491309	41	0.0000000E+000	7.1515e-06
2	1	0	1	0	1	222.855	1.22159	1.22184	0.00623424	2	0.000501716	41	0.0000000E+000	7.61722e-06
2	1	0	0	0	1	224.521	1.25491	1.25508	0.00643526	2	0.000512475	41	0.0000000E+000	8.07678e-06
2	1	0	1	0	1	226.187	1.28823	1.28844	0.00662626	2	0.000523561	41	0.0000000E+000	8.53751e-06
2	1	0	1	0	1	227.853	1.32154	1.32179	0.00677624	2	0.000534925	41	0.0000000E+000	8.95679e-06
2	1	0	0	0	1	229.518	1.35486	1.35507	0.00689045	2	0.000546502	41	0.0000000E+000	9.33706e-06
2	1	0	1	0	1	231.184	1.38818	1.3884	0.00699053	2	0.000558255	41	0.0000000E+000	9.70565e-06
2	1	0	0	0	1	232.85	1.42149	1.42173	0.00714494	2	0.00057021	41	0.0000000E+000	1.01582e-05
2	1	0	1	0	1	234.516	1.45481	1.455	0.00745809	2	0.000582556	41	0.0000000E+000	1.08515e-05
2	1	0	0	0	1	236.182	1.48812	1.48841	0.00812677	2	0.000595692	41	0.0000000E+000	1.2096e-05
2	1	0	1	0	1	237.847	1.52144	1.5218	0.00948752	2	0.000610456	41	0.0000000E+000	1.44381e-05
2	1	0	0	0	1	239.513	1.55476	1.55503	0.0122742	2	0.000628551	41	0.0000000E+000	1.90868e-05
2	1	0	1	0	1	241.179	1.58807	1.58833	0.0178916	2	0.000653413	41	0.0000000E+000	2.84177e-05
2	1	0	0	0	1	242.845	1.62139	1.62156	0.0289543	2	0.000691736	41	0.0000000E+000	4.69511e-05
2	1	0	1	0	1	244.511	1.6547	1.65495	0.0507352	2	0.000756536	41	0.0000000E+000	8.39644e-05
2	1	0	0	0	1	246.176	1.68802	1.68825	0.0938104	2	0.000873498	41	0.0000000E+000	0.000158375
2	1	0	0	0	1	246.959	1.69601	1.6965	0.0961498	2	0.000954365	41	0.0000000E+000	0.000163118
2	1	0	1	0	1	248.625	1.6627	1.66293	0.0265673	2	0.00104042	41	0.0000000E+000	4.41794e-05
2	1	0	0	0	1	250.29	1.62938	1.62975	0.00974301	2	0.00106777	41	0.0000000E+000	1.58786e-05
2	1	0	1	0	1	251.956	1.59607	1.59646	0.00401078	2	0.00107822	41	0.0000000E+000	6.40307e-06
2	1	0	0	0	1	253.622	1.56275	1.56301	0.00184101	2	0.0010826	41	0.0000000E+000	2.87751e-06
2	1	0	1	0	1	255.288	1.52943	1.52973	0.000945062	2	0.0010846	41	0.0000000E+000	1.44569e-06
2	1	0	0	0	1	256.954	1.49612	1.49639	0.000535124	2	0.00108558	41	0.0000000E+000	8.00753e-07
2	1	0	1	0	1	258.619	1.4628	1.46313	0.000323017	2	0.00108606	41	0.0000000E+000	4.72617e-07
2	1	0	0	0	1	260.285	1.42949	1.42978	0.000191675	2	0.00108626	41	0.0000000E+000	2.74052e-07
2	1	0	1	0	1	261.951	1.39617	1.39638	7.36814e-05	2	0.00108627	41	0.0000000E+000	1.02887e-07
2	1	0	0	0	1	263.617	1.36285	1.36301	-1.75478e-05	2	0.00108611	41	0.0000000E+000	-2.39177e-08
2	1	0	1	0	1	265.283	1.32954	1.32984	-0.000114254	2	0.00108579	41	0.0000000E+000	-1.51939e-07
2	1	0	0	0	1	266.948	1.29622	1.29654	-0.000204974	2	0.00108533	41	0.0000000E+000	-2.65757e-07
2	0	0	1	0	1	268.614	1.26291	1.26307	-0.000287124	2	0.00108472	41	0.0000000E+000	-3.62659e-07
2	1	0	0	0	1	270.28	1.22959	1.2298	-0.000381836	2	0.00108397	41	0.0000000E+000	-4.69583e-07
2	0	0	1	0	1	271.946	1.19628	1.19651	-0.000483122	2	0.00108306	41	0.0000000E+000	-5.7806e-07
2	0	0	0	0	1	273.612	1.16296	1.16311	-0.000601859	2	0.00108196	41	0.0000000E+000	-7.00027e-07
2	0	0	1	0	1	275.277	1.12964	1.12983	-0.000721435	2	0.00108065	41	0.0000000E+000	-8.15096e-07
2	0	0	0	0	1	276.943	1.09633	1.09674	-0.000892918	2	0.0010791	41	0.0000000E+000	-9.79299e-07
2	0	0	1	0	1	278.609	1.06301	1.06328	-0.00109377	2	0.00107725	41	0.0000000E+000	-1.16298e-06
2	0	0	0	0	1	280.275	1.02969	1.02994	-0.00134089	2	0.00107502	41	0.0000000E+000	-1.38104e-06
2	0	0	1	0	1	281.941	0.996379	0.996602	-0.00165122	2	0.00107233	41	0.0000000E+000	-1.6456e-06
2	0	0	0	0	1	283.606	0.963063	0.963361	-0.00206402	2	0.00106904	41	0.0000000E+000	-1.9884e-06
2	0	0	0	0	1	285.272	0.929745	0.929914	-0.00260863	2	0.00106496	41	0.0000000E+000	-2.4258e-06
2	0	0	1	0	1	286.938	0.896429	0.8965	-0.00338814	2	0.0010598	41	0.0000000E+000	-3.03747e-06
2	0	0	0	0	1	288.604	0.863113	0.863248	-0.00457653	2	0.00105303	41	0.0000000E+000	-3.95068e-06
2	0	0	1	0	1	290.27	0.829797	0.830011	-0.00661375	2	0.00104366	41	0.0000000E+000	-5.48949e-06
2	0	0	0	0	1	291.936	0.796481	0.796685	-0.0106857	2	0.00102944	41	0.0000000E+000	-8.51313e-06
2	0	0	1	0	1	293.601	0.763165	0.763299	-0.0192884	2	0.00100494	41	0.0000000E+000	-1.47228e-05
2	0	0	0	0	1	295.267	0.729849	0.730019	-0.0272765	2	0.00096434	41	0.0000000E+000	-1.99124e-05
2	0	0	1	0	1	296.933	0.696533	0.696788	-0.0170317	2	0.000925484	41	0.0000000E+000	-1.18675e-05
2	0	0	0	0	1	298.599	0.663217	0.663379	-0.00718162	2	0.000906336	41	0.0000000E+000	-4.76413e-06
2	0	0	1	0	1	300.265	0.629901	0.630109	-0.00361558	2	0.000897675	41	0.0000000E+000	-2.27821e-06
2	0	0	0	0	1	301.93	0.596585	0.596722	-0.00230392	2	0.000892713	41	0.0000000E+000	-1.3748e-06
2	0	0	1	0	1	303.596	0.563269	0.563471	-0.00174772	2	0.000889202	41	0.0000000E+000	-9.84789e-07
2	0	0	0	0	1	305.262	0.529953	0.530119	-0.00148466	2	0.000886341	41	0.0000000E+000	-7.87045e-07
2	0	0	1	0	1	306.928	0.496637	0.496715	-0.00135821	2	0.000883793	41	0.0000000E+000	-6.74646e-07
2	0	0	0	0	1	308.594	0.463321	0.463495	-0.00128806	2	0.0008814	41	0.0000000E+000	-5.97009e-07
2	0	0	1	0	1	310.259	0.430005	0.430283	-0.00125511	2	0.000879093	41	0.0000000E+000	-5.40053e-07
2	0	0	0	0	1	311.925	0.396689	0.396938	-0.00132317	2	0.000876768	41	0.0000000E+000	-5.25219e-07
2	0	0	1	0	1	313.591	0.363373	0.363656	-0.00159565	2	0.000874173	41	0.0000000E+000	-5.80266e-07
2	0	0	0	0	1	315.257	0.330057	0.330355	-0.0022396	2	0.000870859	41	0.0000000E+000	-7.39865e-07
2	1	0	1	0	1	316.923	0.296741	0.296847	-0.00363175	2	0.000865931	41	0.0000000E+000	-1.07807e-06
2	1	0	0	0	1	318.588	0.263425	0.26332	-0.00464367	2	0.000858828	41	0.0000000E+000	-1.22277e-06
2	1	0	1	0	1	320.254	0.230109	0.230309	-0.00461848	2	0.000851021	41	0.0000000E+000	-1.06368e-06
2	1	0	0	0	1	321.92	0.196793	0.196725	-0.00458435	2	0.000843446	41	0.0000000E+000	-9.01856e-07
2	0	0	1	0	1	323.586	0.163477	0.163501	-0.00542199	2	0.000835273	41	0.0000000E+000	-8.865e-07
2	0	0	0	0	1	325.252	0.130161	0.130303	-0.00749028	2	0.000824654	41	0.0000000E+000	-9.76002e-07
2	0	0	1	0	1	326.917	0.0968434	0.0968963	-0.00829572	2	0.000811086	41	0.0000000E+000	-8.03825e-07
2	0	0	0	0	1	328.583	0.0635273	0.063669	-0.00900662	2	0.000797178	41	0.0000000E+000	-5.73442e-07
2	0	0	1	0	1	330.249	0.0302115	0.0305564	-0.0307723	2	0.000771608	41	0.0000000E+000	-9.4029e-07
2	0	0	1	0	0	331.268	0.0103892	0.0110815	-0.171568	2	0.000685501	41	0.0000000E+000	-1.90124e-06
2	1	0	0	0	0	332.776	0.0405403	0.0407799	0.017206	2	0.000721971	41	0.0000000E+000	7.0166e-07
2	1	0	1	0	0	334.441	0.0738561	0.0741287	0.00737811	2	0.000740546	41	0.0000000E+000	5.46929e-07
2	1	0	0	0	0	336.107	0.107172	0.107415	0.00575664	2	0.000750951	41	0.0000000E+000	6.18347e-07
2	0	0	1	0	0	337.773	0.140488	0.140699	0.00482314	2	0.000759906	41	0.0000000E+000	6.78611e-07
2	0	0	0	0	0	339.439	0.173804	0.174086	0.00373435	2	0.0007669	41	0.0000000E+000	6.501e-07
2	0	0	1	0	0	341.105	0.20712	0.207471	0.00375406	2	0.000772983	41	0.0000000E+000	7.78859e-07
2	0	0	0	0	0	342.77	0.240436	0.240678	0.0033749	2	0.000778947	41	0.0000000E+000	8.12262e-07
2	0	0	1	0	0	344.436	0.273752	0.273946	0.00357633	2	0.000784689	41	0.0000000E+000	9.79718e-07
2	0	0	0	0	0	346.102	0.307068	0.307301	0.00318945	2	0.000790514	41	0.0000000E+000	9.8012e-07
2	0	0	1	0	0	347.768	0.340384	0.340534	0.00140124	2	0.000794421	41	0.0000000E+000	4.7717e-07
2	1	0	0	0	0	349.434	0.3737	0.373926	0.00053455	2	0.000796051	41	0.0000000E+000	1.99882e-07
2	0	0	1	0	0	351.099	0.407016	0.407283	0.000295049	2	0.000796889	41	0.0000000E+000	1.20168e-07
2	1	0	0	0	0	352.765	0.440332	0.440525	0.000259626	2	0.000797527	41	0.0000000E+000	1.14372e-07
2	1	0	1	0	0	354.431	0.47365	0.474057	0.000307867	2	0.0007982	41	0.0000000E+000	1.45947e-07
2	1	0	0	0	0	356.097	0.506966	0.507113	0.000370221	2	0.000798971	41	0.0000000E+000	1.87744e-07
2	1	0	1	0	0	357.763	0.540282	0.540484	0.000433753	2	0.000799849	41	0.0000000E+000	2.34437e-07
2	1	0	0	0	0	359.428	0.573598	0.573829	0.000504419	2	0.000800838	41	0.0000000E+000	2.8945e-07
2	1	0	1	0	0	361.094	0.606914	0.607101	0.00061771	2	0.00080196	41	0.0000000E+000	3.75013e-07
2	1	0	0	0	0	362.76	0.64023	0.640493	0.000793325	2	0.000803316	41	0.0000000E+000	5.08119e-07
2	1	0	1	0	0	364.426	0.673546	0.673778	0.000996126	2	0.000805006	41	0.0000000E+000	6.71168e-07
2	1	0	0	0	0	366.092	0.706862	0.7069	0.00112997	2	0.000806986	41	0.0000000E+000	7.98779e-07
2	1	0	1	0	0	367.757	0.740178	0.740399	0.00116573	2	0.000809105	41	0.0000000E+000	8.63105e-07
2	1	0	0	0	0	369.423	0.773494	0.773822	0.0012048	2	0.000811255	41	0.0000000E+000	9.32301e-07
2	1	0	1	0	0	371.089	0.80681	0.807131	0.00156302	2	0.000813687	41	0.0000000E+000	1.26156e-06
2	1	0	0	0	0	372.755	0.840126	0.84049	0.00248652	2	0.0008172	41	0.0000000E+000	2.08989e-06
2	1	0	1	0	0	374.421	0.873442	0.873732	0.00342413	2	0.000822371	41	0.0000000E+000	2.99177e-06
2	1	0	1	0	0	375.74	0.899929	0.900603	0.00415232	2	0.000827336	41	0.0000000E+000	3.73959e-06
2	1	0	0	0	0	380.74	0.917919	0.918295	0.000759474	3	0.000836069	41	0.0000000E+000	6.97421e-07
2	1	0	0	0	0	385.74	0.917919	0.917871	0.000427155	3	0.00083871	41	0.0000000E+000	3.92073e-07
2	1	0	1	0	0	385.86	0.941405	0.941943	0.0116953	3	0.00083979	41	0.0000000E+000	1.10163e-05
2	1	0	0	0	0	386.026	0.974729	0.974952	0.0220162	3	0.000842569	41	0.0000000E+000	2.14648e-05
2	1	0	1	0	0	386.193	1.00805	1.00833	0.0308377	3	0.000847045	41	0.0000000E+000	3.10945e-05
2	1	0	0	0	0	386.36	1.04136	1.04166	0.0357799	3	0.000852637	41	0.0000000E+000	3.72705e-05
2	1	0	0	0	0	386.526	1.07467	1.0751	0.0383713	3	0.000858836	41	0.0000000E+000	4.1253e-05
2	1	0	1	0	0	386.693	1.10799	1.10834	0.0398114	3	0.000865357	41	0.0000000E+000	4.41244e-05
2	1	0	0	0	0	386.859	1.1413	1.1416	0.0411197	3	0.000872103	41	0.0000000E+000	4.69421e-05
2	1	0	1	0	0	387.026	1.17461	1.17499	0.0425236	3	0.000879067	41	0.0000000E+000	4.99647e-05
2	1	0	0	0	0	387.192	1.20793	1.20833	0.0439119	3	0.000886267	41	0.0000000E+000	5.30602e-05
2	1	0	1	0	0	387.359	1.24124	1.24165	0.0453373	3	0.000893705	41	0.0000000E+000	5.6293e-05
2	1	0	0	0	0	387.526	1.27456	1.27481	0.0466428	3	0.000901378	41	0.0000000E+000	5.94607e-05
2	1	0	1	0	0	387.692	1.30789	1.30824	0.0478734	3	0.000909259	41	0.0000000E+000	6.26298e-05
2	1	0	0	0	0	387.859	1.34121	1.34159	0.0489318	3	0.000917328	41	0.0000000E+000	6.56466e-05
2	1	0	1	0	0	388.025	1.37452	1.37491	0.0498191	3	0.00092556	41	0.0000000E+000	6.8497e-05
2	1	0	0	0	0	388.192	1.40785	1.40819	0.0507272	3	0.00093394	41	0.0000000E+000	7.14335e-05
2	1	0	0	0	0	388.358	1.44115	1.44159	0.0519943	3	0.000942489	41	0.0000000E+000	7.49546e-05
2	1	0	1	0	0	388.525	1.47446	1.47486	0.0540268	3	0.00095131	41	0.0000000E+000	7.96818e-05
2	1	0	0	0	0	388.692	1.50776	1.50827	0.0576365	3	0.000960586	41	0.0000000E+000	8.69312e-05
2	1	0	1	0	0	388.858	1.54109	1.54145	0.0641457	3	0.000970685	41	0.0000000E+000	9.88773e-05
2	1	0	0	0	0	389.025	1.57441	1.57456	0.0765109	3	0.000982304	41	0.0000000E+000	0.000120471
2	1	0	1	0	0	389.191	1.60772	1.60827	0.100862	3	0.00099687	41	0.0000000E+000	0.000162213
2	1	0	0	0	0	389.358	1.64105	1.64137	0.151031	3	0.00101738	41	0.0000000E+000	0.000247898
2	1	0	1	0	0	389.512	1.67187	1.67191	0.248318	3	0.00104728	41	0.0000000E+000	0.000415166
2	1	0	1	0	0	389.768	1.67702	1.67743	0.128402	3	0.00110616	41	0.0000000E+000	0.000215385
2	1	0	0	0	0	389.935	1.6437	1.64406	0.0404155	3	0.00111848	41	0.0000000E+000	6.64456e-05
2	1	0	1	0	0	390.101	1.61038	1.61037	0.0156688	3	0.00112278	41	0.0000000E+000	2.52326e-05
2	1	0	1	0	0	390.268	1.57708	1.57715	0.00648174	3	0.0011245	41	0.0000000E+000	1.02227e-05
2	1	0	0	0	0	390.434	1.54376	1.54379	0.0025226	3	0.00112519	41	0.0000000E+000	3.89437e-06
2	1	0	1	0	0	390.601	1.51046	1.51066	0.000595673	3	0.00112543	41	0.0000000E+000	8.99857e-07
2	1	0	0	0	0	390.768	1.47714	1.4773	-0.000541219	3	0.00112542	41	0.0000000E+000	-7.99545e-07
2	1	0	1	0	0	390.934	1.44382	1.44394	-0.00133838	3	0.00112526	41	0.0000000E+000	-1.93255e-06
2	1	0	0	0	0	391.101	1.4105	1.4107	-0.00190911	3	0.00112499	41	0.0000000E+000	-2.69319e-06
2	0	0	1	0	0	391.267	1.37717	1.37742	-0.00244777	3	0.00112462	41	0.0000000E+000	-3.37161e-06
2	1	0	0	0	0	391.434	1.34386	1.34412	-0.00295227	3	0.00112417	41	0.0000000E+000	-3.96819e-06
2	1	0	1	0	0	391.601	1.31054	1.31051	-0.00346194	3	0.00112363	41	0.0000000E+000	-4.53689e-06
2	1	0	0	0	0	391.767	1.27722	1.27736	-0.00403105	3	0.001123	41	0.0000000E+000	-5.14909e-06
2	0	0	0	0	0	391.934	1.24392	1.24415	-0.00465768	3	0.00112227	41	0.0000000E+000	-5.79484e-06
2	0	0	1	0	0	392.1	1.2106	1.21079	-0.00531053	3	0.00112144	41	0.0000000E+000	-6.42993e-06
2	0	0	0	0	0	392.267	1.1773	1.17729	-0.00608147	3	0.00112048	41	0.0000000E+000	-7.15967e-06
2	0	0	1	0	0	392.433	1.14397	1.14417	-0.00704616	3	0.00111939	41	0.0000000E+000	-8.06201e-06
2	0	0	0	0	0	392.6	1.11066	1.11075	-0.00815786	3	0.00111813	41	0.0000000E+000	-9.06137e-06
2	0	0	1	0	0	392.767	1.07734	1.07746	-0.00951757	3	0.00111666	41	0.0000000E+000	-1.02548e-05
2	0	0	0	0	0	392.933	1.04402	1.04414	-0.0112083	3	0.00111493	41	0.0000000E+000	-1.17031e-05
2	0	0	1	0	0	393.1	1.0107	1.01059	-0.013299	3	0.00111289	41	0.0000000E+000	-1.34398e-05
2	0	0	0	0	0	393.266	0.977382	0.977544	-0.0160434	3	0.00111045	41	0.0000000E+000	-1.56832e-05
2	0	0	1	0	0	393.433	0.944061	0.944103	-0.019692	3	0.00110748	41	0.0000000E+000	-1.85913e-05
2	0	0	1	0	0	393.599	0.910756	0.911033	-0.0247221	3	0.00110379	41	0.0000000E+000	-2.25227e-05
2	0	0	0	0	0	393.766	0.87744	0.877528	-0.0320018	3	0.0010991	41	0.0000000E+000	-2.80825e-05
2	0	0	1	0	0	393.933	0.844124	0.844226	-0.0434246	3	0.00109288	41	0.0000000E+000	-3.66602e-05
2	0	0	0	0	0	394.099	0.810814	0.810996	-0.0636022	3	0.00108412	41	0.0000000E+000	-5.15812e-05
2	0	0	1	0	0	394.266	0.777498	0.777863	-0.105976	3	0.00107043	41	0.0000000E+000	-8.24348e-05
2	0	0	0	0	0	394.432	0.744182	0.744473	-0.199697	3	0.00104571	41	0.0000000E+000	-0.000148669
2	0	1	1	0	0	394.607	0.709175	0.709319	-0.244975	3	0.00100416	41	0.0000000E+000	-0.000173765
2	0	0	1	0	0	394.774	0.675878	0.675992	-0.153681	3	0.000970544	41	0.0000000E+000	-0.000103887
2	0	0	0	0	0	394.94	0.642562	0.64254	-0.0822492	3	0.000951592	41	0.0000000E+000	-5.28484e-05
2	0	0	1	0	0	395.107	0.60926	0.609219	-0.050492	3	0.000940914	41	0.0000000E+000	-3.07607e-05
2	0	0	0	0	0	395.274	0.575936	0.576012	-0.0357834	3	0.000933862	41	0.0000000E+000	-2.06117e-05
2	0	0	1	0	0	395.44	0.54262	0.542759	-0.0275087	3	0.000928647	41	0.0000000E+000	-1.49306e-05
2	0	0	0	0	0	395.607	0.509304	0.509238	-0.0223097	3	0.000924529	41	0.0000000E+000	-1.13609e-05
2	0	0	1	0	0	395.773	0.475975	0.475991	-0.0189974	3	0.000921104	41	0.0000000E+000	-9.04261e-06
2	0	0	0	0	0	395.94	0.442659	0.442717	-0.0169658	3	0.000918116	41	0.0000000E+000	-7.51106e-06
2	0	0	1	0	0	396.107	0.409343	0.409412	-0.016088	3	0.000915371	41	0.0000000E+000	-6.58662e-06
2	0	0	0	0	0	396.273	0.376018	0.376054	-0.0169705	3	0.000912639	41	0.0000000E+000	-6.38182e-06
2	0	0	0	0	0	396.44	0.342717	0.342749	-0.0212676	3	0.000909515	41	0.0000000E+000	-7.28945e-06
2	0	0	1	0	0	396.606	0.309401	0.309552	-0.0320837	3	0.000905142	41	0.0000000E+000	-9.93157e-06
2	0	0	0	0	0	396.773	0.276104	0.276027	-0.0437738	3	0.000898718	41	0.0000000E+000	-1.20828e-05
2	0	0	1	0	0	396.939	0.242775	0.242746	-0.0423602	3	0.000891479	41	0.0000000E+000	-1.02827e-05
2	0	0	0	0	0	397.106	0.209459	0.209566	-0.0406175	3	0.000884612	41	0.0000000E+000	-8.51206e-06
2	0	0	1	0	0	397.273	0.176143	0.176128	-0.0460361	3	0.000877531	41	0.0000000E+000	-8.10827e-06
2	0	0	0	0	0	397.439	0.142816	0.142962	-0.0655768	3	0.000868407	41	0.0000000E+000	-9.37497e-06
2	0	0	1	0	0	397.606	0.109498	0.109467	-0.0755999	3	0.000856121	41	0.0000000E+000	-8.27568e-06
2	0	0	0	0	0	397.772	0.0761821	0.0763953	-0.0639602	3	0.000844756	41	0.0000000E+000	-4.88626e-06
2	0	0	1	0	0	397.939	0.0428597	0.0431298	-0.0962879	3	0.000832783	41	0.0000000E+000	-4.15287e-06
2	0	0	1	0	1	398.104	0.0103892	0.0142448	-0.250092	3	0.000799808	41	0.0000000E+000	-3.56252e-06
2	1	0	1	0	1	398.325	0.0545267	0.0547801	0.089648	3	0.000818603	41	0.0000000E+000	4.91093e-06
2	1	0	0	0	1	398.492	0.0878427	0.0878781	0.0754732	3	0.000832264	41	0.0000000E+000	6.63244e-06
2	1	0	1	0	1	398.658	0.121169	0.121326	0.0641677	3	0.000843736	41	0.0000000E+000	7.78519e-06
2	1	0	0	0	1	398.825	0.154488	0.154734	0.0471307	3	0.000852802	41	0.0000000E+000	7.29271e-06
2	1	0	1	0	1	398.991	0.187804	0.188197	0.0387177	3	0.000859812	41	0.0000000E+000	7.28655e-06
2	1	0	0	0	1	399.158	0.221124	0.221435	0.0398933	3	0.000866325	41	0.0000000E+000	8.83379e-06
2	1	0	0	0	1	399.324	0.254429	0.254682	0.0365233	3	0.000872697	41	0.0000000E+000	9.30183e-06
2	1	0	1	0	1	399.491	0.287746	0.288059	0.0363051	3	0.000878763	41	0.0000000E+000	1.0458e-05
2	1	0	0	0	1	399.658	0.321062	0.32142	0.0292883	3	0.000884385	41	0.0000000E+000	9.41385e-06
2	1	0	1	0	1	399.824	0.354371	0.354736	0.0145136	3	0.000887974	41	0.0000000E+000	5.14851e-06
2	1	0	0	0	1	399.991	0.387687	0.388028	0.00762969	3	0.000889721	41	0.0000000E+000	2.96053e-06
2	1	0	1	0	1	400.157	0.421003	0.421287	0.00526681	3	0.000890767	41	0.0000000E+000	2.21884e-06
2	1	0	0	0	1	400.324	0.454328	0.454721	0.00463505	3	0.000891576	41	0.0000000E+000	2.10765e-06
2	0	0	1	0	1	400.491	0.487648	0.487784	0.00469945	3	0.000892351	41	0.0000000E+000	2.29232e-06
2	1	0	0	0	1	400.657	0.520964	0.521336	0.00501421	3	0.000893165	41	0.0000000E+000	2.61409e-06
2	1	0	1	0	1	400.824	0.554282	0.55464	0.00538402	3	0.000894035	41	0.0000000E+000	2.98619e-06
2	1	0	1	0	1	400.99	0.58759	0.587951	0.00576699	3	0.000894963	41	0.0000000E+000	3.39071e-06
2	1	0	0	0	1	401.157	0.620906	0.621192	0.00633368	3	0.00089597	41	0.0000000E+000	3.93443e-06
2	1	0	1	0	1	401.323	0.654222	0.654559	0.00705676	3	0.000897084	41	0.0000000E+000	4.61907e-06
2	1	0	0	0	1	401.49	0.68753	0.687832	0.00783776	3	0.000898325	41	0.0000000E+000	5.39106e-06
2	1	0	1	0	1	401.657	0.720848	0.721248	0.00875873	3	0.000899703	41	0.0000000E+000	6.31721e-06
2	1	0	0	0	1	401.823	0.754164	0.754629	0.00998259	3	0.000901265	41	0.0000000E+000	7.53315e-06
2	1	0	1	0	1	401.99	0.787484	0.788	0.0127485	3	0.000903106	41	0.0000000E+000	1.00458e-05
2	1	0	0	0	1	402.156	0.820809	0.821082	0.0209202	3	0.000905826	41	0.0000000E+000	1.71772e-05
2	1	0	1	0	1	402.323	0.854125	0.854418	0.0312306	3	0.000910224	41	0.0000000E+000	2.6684e-05
2	1	0	0	0	1	402.49	0.887441	0.887603	0.0358824	3	0.000915898	41	0.0000000E+000	3.18493e-05
2	1	0	0	0	1	402.64	0.917586	0.917424	0.0392508	3	0.000921504	41	0.0000000E+000	3.60096e-05
2	1	0	1	0	1	402.759	0.941405	0.941716	0.0392067	4	0.000926132	41	0.0000000E+000	3.69216e-05
2	1	0	0	0	1	402.926	0.974729	0.97511	0.0392294	4	0.000932682	41	0.0000000E+000	3.8253e-05
2	1	0	1	0	1	403.093	1.00805	1.00844	0.0384229	4	0.000939154	41	0.0000000E+000	3.87471e-05
2	1	0	0	0	1	403.259	1.04136	1.04166	0.0383679	4	0.000945544	41	0.0000000E+000	3.99664e-05
2	1	0	0	0	1	403.426	1.07467	1.07506	0.0383948	4	0.000951938	41	0.0000000E+000	4.12768e-05
2	1	0	1	0	1	403.592	1.10799	1.10824	0.0384718	4	0.000958339	41	0.0000000E+000	4.26358e-05
2	1	0	0	0	1	403.759	1.1413	1.14163	0.0390691	4	0.000964796	41	0.0000000E+000	4.46025e-05
2	1	0	1	0	1	403.925	1.17461	1.17501	0.0400355	4	0.000971378	41	0.0000000E+000	4.70422e-05
2	1	0	0	0	1	404.092	1.20793	1.20835	0.0410609	4	0.000978129	41	0.0000000E+000	4.9616e-05
2	1	0	1	0	1	404.259	1.24124	1.24166	0.0421871	4	0.000985068	41	0.0000000E+000	5.23821e-05
2	1	0	0	0	1	404.425	1.27456	1.27493	0.0431391	4	0.000992181	41	0.0000000E+000	5.49995e-05
2	1	0	1	0	1	404.592	1.30789	1.30829	0.0440253	4	0.000999448	41	0.0000000E+000	5.75978e-05
2	1	0	0	0	1	404.758	1.34121	1.34153	0.0446309	4	0.00100684	41	0.0000000E+000	5.98737e-05
2	1	0	1	0	1	404.925	1.37452	1.37493	0.0451556	4	0.00101432	41	0.0000000E+000	6.20859e-05
2	1	0	0	0	1	405.092	1.40785	1.40806	0.0457567	4	0.0010219	41	0.0000000E+000	6.44283e-05
2	1	0	0	0	1	405.258	1.44115	1.4415	0.0467255	4	0.00102959	41	0.0000000E+000	6.73548e-05
2	1	0	1	0	1	405.425	1.47446	1.47494	0.0485881	4	0.00103752	41	0.0000000E+000	7.16646e-05
2	1	0	0	0	1	405.591	1.50776	1.50809	0.0521285	4	0.00104588	41	0.0000000E+000	7.86145e-05
2	1	0	1	0	1	405.758	1.54109	1.54142	0.0587316	4	0.00105506	41	0.0000000E+000	9.05303e-05
2	1	0	0	0	1	405.924	1.57441	1.57478	0.0715847	4	0.00106581	41	0.0000000E+000	0.00011273
2	1	0	1	0	1	406.091	1.60772	1.60806	0.0972698	4	0.00107965	41	0.0000000E+000	0.000156416
2	1	0	0	0	1	406.258	1.64105	1.64127	0.150922	4	0.00109981	41	0.0000000E+000	0.000247703
2	1	1	1	0	1	406.408	1.6712	1.67147	0.250179	4	0.00112939	41	0.0000000E+000	0.000418167
2	1	0	1	0	1	406.673	1.67602	1.6764	0.125391	4	0.00119015	41	0.0000000E+000	0.000210206
2	1	0	0	0	1	406.839	1.6427	1.64293	0.0381781	4	0.00120203	41	0.0000000E+000	6.27241e-05
2	1	0	1	0	1	407.006	1.60937	1.6096	0.0140505	4	0.00120601	41	0.0000000E+000	2.26156e-05
2	1	0	1	0	1	407.172	1.57608	1.57618	0.00533367	4	0.0012075	41	0.0000000E+000	8.40681e-06
2	1	0	0	0	1	407.339	1.54276	1.54303	0.00171446	4	0.00120805	41	0.0000000E+000	2.64546e-06
2	1	0	1	0	1	407.506	1.50946	1.50954	6.15909e-06	4	0.00120817	41	0.0000000E+000	9.29737e-09
2	1	0	0	0	1	407.672	1.47614	1.47626	-0.00103006	4	0.00120807	41	0.0000000E+000	-1.52063e-06
2	1	0	1	0	1	407.839	1.44282	1.44299	-0.00172642	4	0.00120784	41	0.0000000E+000	-2.4912e-06
2	1	0	0	0	1	408.005	1.4095	1.40976	-0.00227568	4	0.00120751	41	0.0000000E+000	-3.20817e-06
2	1	0	1	0	1	408.172	1.37617	1.37639	-0.00275733	4	0.00120709	41	0.0000000E+000	-3.79517e-06
2	1	0	0	0	1	408.339	1.34286	1.34309	-0.00323361	4	0.00120659	41	0.0000000E+000	-4.34302e-06
2	1	0	1	0	1	408.505	1.30954	1.3096	-0.00373734	4	0.001206	41	0.0000000E+000	-4.89442e-06
2	1	0	0	0	1	408.672	1.27622	1.27634	-0.00429003	4	0.00120533	41	0.0000000E+000	-5.47554e-06
2	0	0	0	0	1	408.838	1.24292	1.243	-0.00489237	4	0.00120456	41	0.0000000E+000	-6.0812e-06
2	0	0	1	0	1	409.005	1.2096	1.20981	-0.00554057	4	0.00120369	41	0.0000000E+000	-6.70301e-06
2	0	0	0	0	1	409.171	1.1763	1.17643	-0.0063585	4	0.0012027	41	0.0000000E+000	-7.48033e-06
2	0	0	1	0	1	409.338	1.14298	1.14297	-0.00727277	4	0.00120156	41	0.0000000E+000	-8.31253e-06
2	0	0	0	0	1	409.505	1.10966	1.10976	-0.00838156	4	0.00120026	41	0.0000000E+000	-9.30153e-06
2	0	0	1	0	1	409.671	1.07634	1.07656	-0.0097869	4	0.00119875	41	0.0000000E+000	-1.05362e-05
2	0	0	0	0	1	409.838	1.04301	1.04303	-0.0114863	4	0.00119698	41	0.0000000E+000	-1.19806e-05
2	0	0	1	0	1	410.004	1.0097	1.00992	-0.0136208	4	0.00119489	41	0.0000000E+000	-1.37559e-05
2	0	0	0	0	1	410.171	0.976382	0.976524	-0.0163231	4	0.0011924	41	0.0000000E+000	-1.59399e-05
2	0	0	1	0	1	410.338	0.94306	0.943113	-0.0200242	4	0.00118937	41	0.0000000E+000	-1.88851e-05
2	0	0	1	0	1	410.504	0.909756	0.909801	-0.0250946	4	0.00118564	41	0.0000000E+000	-2.28311e-05
2	0	0	0	0	1	410.671	0.87644	0.876831	-0.0324958	4	0.00118087	41	0.0000000E+000	-2.84933e-05
2	0	0	1	0	1	410.837	0.843143	0.843246	-0.0442063	4	0.00117455	41	0.0000000E+000	-3.72768e-05
2	0	0	0	0	1	411.004	0.809814	0.810056	-0.0654404	4	0.00116559	41	0.0000000E+000	-5.30104e-05
2	0	0	1	0	1	411.17	0.776498	0.776745	-0.112344	4	0.00115131	41	0.0000000E+000	-8.72628e-05
2	0	0	0	0	1	411.337	0.743182	0.743547	-0.222439	4	0.00112429	41	0.0000000E+000	-0.000165394
2	0	0	1	0	1	411.637	0.683215	0.683261	-0.17659	4	0.00105412	41	0.0000000E+000	-0.000120657
2	0	0	0	0	1	411.803	0.649897	0.650012	-0.0916799	4	0.00103257	41	0.0000000E+000	-5.9593e-05
2	0	0	1	0	1	411.97	0.616581	0.616538	-0.054327	4	0.00102088	41	0.0000000E+000	-3.34946e-05
2	0	0	0	0	1	412.137	0.583261	0.583365	-0.0381128	4	0.00101335	41	0.0000000E+000	-2.22337e-05
2	0	0	1	0	1	412.303	0.549936	0.549873	-0.0292332	4	0.0010078	41	0.0000000E+000	-1.60745e-05
2	0	0	0	0	1	412.47	0.516621	0.516663	-0.0236902	4	0.00100342	41	0.0000000E+000	-1.22398e-05
2	0	0	1	0	1	412.636	0.483304	0.483307	-0.0201122	4	0.000999781	41	0.0000000E+000	-9.72034e-06
2	0	0	1	0	1	412.803	0.449995	0.450144	-0.0178735	4	0.000996627	41	0.0000000E+000	-8.04564e-06
2	0	0	0	0	1	412.969	0.416679	0.416829	-0.0168059	4	0.000993748	41	0.0000000E+000	-7.00518e-06
2	0	0	1	0	1	413.136	0.383363	0.383426	-0.0175652	4	0.000990906	41	0.0000000E+000	-6.73496e-06
2	0	0	0	0	1	413.303	0.350057	0.350285	-0.0219144	4	0.000987681	41	0.0000000E+000	-7.67628e-06
2	0	0	1	0	1	413.469	0.316737	0.316776	-0.0332	4	0.000983182	41	0.0000000E+000	-1.0517e-05
2	0	0	0	0	1	413.636	0.283421	0.283413	-0.042686	4	0.00097677	41	0.0000000E+000	-1.20978e-05
2	0	0	1	0	1	413.802	0.250103	0.250013	-0.0414746	4	0.00096969	41	0.0000000E+000	-1.03692e-05
2	0	0	0	0	1	413.969	0.216776	0.217006	-0.0397972	4	0.000962943	41	0.0000000E+000	-8.63623e-06
2	0	0	1	0	1	414.136	0.18346	0.183481	-0.0439295	4	0.000956052	41	0.0000000E+000	-8.06021e-06
2	0	0	0	0	1	414.302	0.150144	0.150212	-0.0606647	4	0.000947497	41	0.0000000E+000	-9.11256e-06
2	0	0	1	0	1	414.469	0.116815	0.116907	-0.0770662	4	0.000935805	41	0.0000000E+000	-9.00961e-06
2	0	0	1	0	1	414.635	0.083518	0.083562	-0.0634788	4	0.000924096	41	0.0000000E+000	-5.30441e-06
2	0	0	0	0	1	414.802	0.0502019	0.0504157	-0.0760151	4	0.00091315	41	0.0000000E+000	-3.83235e-06
2	0	1	1	0	1	415.002	0.0100561	0.0141187	-0.250092	4	0.000877941	41	0.0000000E+000	-3.53099e-06
2	1	0	1	0	0	415.191	0.0478698	0.048371	0.129234	4	0.000892791	41	0.0000000E+000	6.25117e-06
2	1	0	0	0	0	415.358	0.0811859	0.0817789	0.0690752	4	0.000907576	41	0.0000000E+000	5.64889e-06
2	1	0	1	0	0	415.524	0.114502	0.114903	0.0623841	4	0.000919328	41	0.0000000E+000	7.16808e-06
2	1	0	0	0	0	415.691	0.147812	0.148184	0.0487232	4	0.000928791	41	0.0000000E+000	7.22001e-06
2	1	0	1	0	0	415.858	0.181128	0.181169	0.0394192	4	0.000936064	41	0.0000000E+000	7.14155e-06
2	1	0	0	0	0	416.024	0.214444	0.214859	0.0393514	4	0.000942518	41	0.0000000E+000	8.45499e-06
2	1	0	1	0	0	416.191	0.247766	0.248078	0.0369245	4	0.000948966	41	0.0000000E+000	9.16018e-06
2	1	0	0	0	0	416.357	0.281089	0.281412	0.0355375	4	0.000954942	41	0.0000000E+000	1.00007e-05
2	1	0	1	0	0	416.524	0.314405	0.314642	0.032114	4	0.000960718	41	0.0000000E+000	1.01044e-05
2	1	0	0	0	0	416.691	0.347721	0.348185	0.0174156	4	0.000964906	41	0.0000000E+000	6.06387e-06
2	1	0	0	0	0	416.857	0.38103	0.381167	0.00849098	4	0.000966942	41	0.0000000E+000	3.23648e-06
2	1	0	1	0	0	417.024	0.414347	0.41462	0.00541848	4	0.000968064	41	0.0000000E+000	2.24661e-06
2	1	0	0	0	0	417.19	0.447663	0.447932	0.00453353	4	0.00096888	41	0.0000000E+000	2.03071e-06
2	1	0	1	0	0	417.357	0.480968	0.481192	0.00458094	4	0.000969634	41	0.0000000E+000	2.20431e-06
2	1	0	0	0	0	417.523	0.514288	0.51452	0.00494029	4	0.000970426	41	0.0000000E+000	2.54188e-06
2	1	0	1	0	0	417.69	0.547604	0.547804	0.00530707	4	0.000971281	41	0.0000000E+000	2.90723e-06
2	1	0	0	0	0	417.857	0.580925	0.581313	0.00567442	4	0.000972194	41	0.0000000E+000	3.29861e-06
2	1	0	1	0	0	418.023	0.614249	0.614578	0.00616963	4	0.000973181	41	0.0000000E+000	3.79172e-06
2	1	0	0	0	0	418.19	0.647565	0.647813	0.00686178	4	0.000974267	41	0.0000000E+000	4.44515e-06
2	1	0	1	0	0	418.356	0.680881	0.68125	0.00755111	4	0.000975467	41	0.0000000E+000	5.14419e-06
2	1	0	0	0	0	418.523	0.71421	0.714483	0.0083999	4	0.000976791	41	0.0000000E+000	6.00159e-06
2	1	0	0	0	0	418.689	0.747507	0.747928	0.00954092	4	0.000978284	41	0.0000000E+000	7.13592e-06
2	1	0	1	0	0	418.856	0.780823	0.781238	0.0117342	4	0.000980014	41	0.0000000E+000	9.16717e-06
2	1	0	0	0	0	419.023	0.814127	0.814367	0.0192351	4	0.000982501	41	0.0000000E+000	1.56644e-05
2	1	0	1	0	0	419.189	0.847449	0.84781	0.030799	4	0.000986695	41	0.0000000E+000	2.61117e-05
2	1	0	0	0	0	419.356	0.880765	0.880898	0.0364602	4	0.000992413	41	0.0000000E+000	3.21177e-05
2	1	0	0	1	0	420.451	0.917919	0.918184	0.00792277	5	0.00100389	41	0.0000000E+000	7.27456e-06
2	1	0	0	0	0	424.458	0.917919	0.91815	0.000451038	5	0.00100754	41	0.0000000E+000	4.14121e-07
2	1	0	0	0	0	425.661	0.978055	0.978259	0.00783762	5	0.00101403	41	0.0000000E+000	7.66722e-06
2	1	0	1	0	0	426.994	1.04469	1.04505	0.00983988	5	0.00102624	41	0.0000000E+000	1.02832e-05
2	1	0	0	0	0	428.326	1.11132	1.11166	0.0104424	5	0.0010399	41	0.0000000E+000	1.16083e-05
2	1	0	1	0	0	429.659	1.17795	1.17833	0.0110773	5	0.00105438	41	0.0000000E+000	1.30527e-05
2	1	0	1	0	0	430.992	1.24459	1.24485	0.0117191	5	0.00106974	41	0.0000000E+000	1.45886e-05
2	1	0	0	0	0	432.324	1.31122	1.31154	0.0121747	5	0.00108592	41	0.0000000E+000	1.59677e-05
2	1	0	1	0	0	433.657	1.37785	1.37804	0.0124254	5	0.00110271	41	0.0000000E+000	1.71228e-05
2	1	0	0	0	0	434.99	1.44448	1.44464	0.0130492	5	0.00112014	41	0.0000000E+000	1.88513e-05
2	1	0	1	0	0	436.322	1.51111	1.5112	0.0159556	5	0.00113964	41	0.0000000E+000	2.41121e-05
2	1	0	1	0	0	437.655	1.57774	1.57806	0.0267605	5	0.00116705	41	0.0000000E+000	4.22296e-05
2	1	0	0	0	0	438.987	1.64437	1.64466	0.0690733	5	0.00122531	41	0.0000000E+000	0.000113602
2	1	0	1	0	0	440.097	1.69985	1.69961	0.198172	5	0.0013594	41	0.0000000E+000	0.000336816
2	1	0	1	0	0	441.3	1.63971	1.63989	0.0192402	5	0.00143856	41	0.0000000E+000	3.15518e-05
2	1	0	0	0	0	442.632	1.57308	1.57319	0.00311532	5	0.00144988	41	0.0000000E+000	4.901e-06
2	1	0	1	0	0	443.965	1.50645	1.50667	0.000629165	5	0.0014517	41	0.0000000E+000	9.47945e-07
2	1	0	0	0	0	445.298	1.43981	1.43998	-2.135e-06	5	0.00145179	41	0.0000000E+000	-3.07437e-09
2	1	0	1	0	0	446.63	1.37318	1.37344	-0.000343547	5	0.00145127	41	0.0000000E+000	-4.71842e-07
2	1	0	1	0	0	447.963	1.30655	1.30673	-0.000636857	5	0.00145031	41	0.0000000E+000	-8.32201e-07
2	0	0	0	0	0	449.295	1.23992	1.24012	-0.000961898	5	0.00144891	41	0.0000000E+000	-1.19287e-06
2	0	0	1	0	0	450.628	1.17329	1.17349	-0.00136624	5	0.00144698	41	0.0000000E+000	-1.60326e-06
2	0	0	0	0	0	451.961	1.10665	1.10678	-0.00193676	5	0.00144436	41	0.0000000E+000	-2.14356e-06
2	0	0	0	0	0	453.293	1.04002	1.04047	-0.00284194	5	0.00144074	41	0.0000000E+000	-2.95695e-06
2	0	0	1	0	0	454.626	0.973388	0.973656	-0.00431417	5	0.00143556	41	0.0000000E+000	-4.20052e-06
2	0	0	0	0	0	455.959	0.906758	0.906894	-0.00698729	5	0.00142772	41	0.0000000E+000	-6.33673e-06
2	0	0	1	0	0	457.291	0.840129	0.840236	-0.0130733	5	0.00141452	41	0.0000000E+000	-1.09847e-05
2	0	0	0	0	0	458.624	0.773494	0.773708	-0.0374372	5	0.00138466	41	0.0000000E+000	-2.89655e-05
2	0	0	0	0	0	459.957	0.706859	0.707139	-0.0592351	5	0.00130424	41	0.0000000E+000	-4.18875e-05
2	0	0	1	0	0	461.289	0.640229	0.640343	-0.0136474	5	0.00126208	41	0.0000000E+000	-8.73904e-06
2	0	0	0	0	0	462.622	0.573599	0.57388	-0.00539854	5	0.00125024	41	0.0000000E+000	-3.09811e-06
2	0	0	1	0	0	463.955	0.506964	0.5071	-0.00350144	5	0.00124412	41	0.0000000E+000	-1.77558e-06
2	0	0	0	0	0	465.287	0.440334	0.440529	-0.00290876	5	0.00123961	41	0.0000000E+000	-1.2814e-06
2	0	0	0	0	0	466.62	0.373699	0.373952	-0.00340311	5	0.0012353	41	0.0000000E+000	-1.2726e-06
2	0	0	1	0	0	467.952	0.307069	0.307161	-0.00799781	5	0.00122814	41	0.0000000E+000	-2.45662e-06
2	0	0	0	0	0	469.285	0.240439	0.240584	-0.0100647	5	0.00121504	41	0.0000000E+000	-2.42141e-06
2	0	0	1	0	0	470.618	0.173804	0.173761	-0.0113181	5	0.00120153	41	0.0000000E+000	-1.96664e-06
2	0	0	1	0	0	471.95	0.107169	0.107238	-0.0190176	5	0.0011808	41	0.0000000E+000	-2.03941e-06
2	0	0	0	0	0	473.283	0.0405395	0.0405385	-0.031956	5	0.00115423	41	0.0000000E+000	-1.29545e-06
2	0	0	1	0	1	474.037	0.0173864	0.0173429	0.0504566	5	0.0010905	41	0.0000000E+000	8.75063e-07
2	1	0	0	0	1	475.373	0.0841863	0.0844934	0.0195377	5	0.0011378	41	0.0000000E+000	1.65081e-06
2	1	0	1	0	1	476.706	0.150816	0.151129	0.01274	5	0.00115988	41	0.0000000E+000	1.92539e-06
2	1	0	0	0	1	478.039	0.217446	0.21768	0.0101798	5	0.001174	41	0.0000000E+000	2.21594e-06
2	1	0	1	0	1	479.371	0.284081	0.28435	0.00894308	5	0.0011862	41	0.0000000E+000	2.54296e-06
2	0	0	1	0	1	480.704	0.350716	0.350912	0.00354459	5	0.00119573	41	0.0000000E+000	1.24384e-06
2	1	0	0	0	1	482.037	0.417346	0.417575	0.000864194	5	0.00119832	41	0.0000000E+000	3.60866e-07
2	1	0	1	0	1	483.369	0.483976	0.484185	0.000805649	5	0.00119974	41	0.0000000E+000	3.90083e-07
2	1	0	0	0	1	484.702	0.550606	0.550807	0.000888879	5	0.00120134	41	0.0000000E+000	4.89601e-07
2	1	0	1	0	1	486.035	0.617241	0.617448	0.00118504	5	0.00120325	41	0.0000000E+000	7.31701e-07
2	1	0	1	0	1	487.367	0.683876	0.684124	0.00189738	5	0.00120572	41	0.0000000E+000	1.29805e-06
2	0	0	0	0	1	488.7	0.750506	0.750842	0.00248062	5	0.00120892	41	0.0000000E+000	1.86255e-06
2	1	0	1	0	1	490.032	0.817136	0.81741	0.00476367	5	0.00121333	41	0.0000000E+000	3.89387e-06
2	1	0	0	0	1	491.365	0.883771	0.8841	0.00938363	5	0.00122337	41	0.0000000E+000	8.29607e-06
2	1	0	1	0	1	492.191	0.925081	0.925379	0.0102516	6	0.00123158	41	0.0000000E+000	9.48659e-06
2	1	0	1	0	1	493.524	0.991716	0.991993	0.0103875	6	0.00124551	41	0.0000000E+000	1.03043e-05
2	1	0	0	0	1	494.857	1.05835	1.05868	0.0105513	6	0.00125951	41	0.0000000E+000	1.11705e-05
2	1	0	1	0	1	496.189	1.12498	1.1253	0.0110028	6	0.00127398	41	0.0000000E+000	1.23815e-05
2	1	0	0	0	1	497.522	1.19161	1.19189	0.0116379	6	0.00128923	41	0.0000000E+000	1.38711e-05
2	1	0	1	0	1	498.855	1.25824	1.25851	0.0122635	6	0.00130536	41	0.0000000E+000	1.54338e-05
2	1	0	1	0	1	500.187	1.32488	1.32507	0.01268	6	0.00132228	41	0.0000000E+000	1.68019e-05
2	1	0	0	0	1	501.52	1.3915	1.39178	0.0128761	6	0.00133974	41	0.0000000E+000	1.79206e-05
2	1	0	1	0	1	502.852	1.45813	1.45833	0.0137895	6	0.00135794	41	0.0000000E+000	2.01097e-05
2	1	0	0	0	1	504.185	1.52477	1.52505	0.0175851	6	0.00137888	41	0.0000000E+000	2.68182e-05
2	1	0	0	0	1	505.518	1.5914	1.59168	0.0316549	6	0.00141014	41	0.0000000E+000	5.03844e-05
2	1	0	1	0	1	506.85	1.65803	1.65834	0.0884215	6	0.00148228	41	0.0000000E+000	0.000146633
2	1	0	1	0	1	507.823	1.69302	1.69344	0.13952	6	0.00161491	41	0.0000000E+000	0.000236268
2	1	0	0	0	1	509.156	1.62638	1.6267	0.0132204	6	0.00168009	41	0.0000000E+000	2.15056e-05
2	1	0	1	0	1	510.489	1.55975	1.56004	0.00230969	6	0.00168802	41	0.0000000E+000	3.60321e-06
2	1	0	1	0	1	511.821	1.49312	1.49346	0.000474215	6	0.00168934	41	0.0000000E+000	7.08222e-07
2	1	0	0	0	1	513.154	1.42649	1.42669	-6.25093e-05	6	0.0016893	41	0.0000000E+000	-8.91816e-08
2	1	0	1	0	1	514.486	1.35986	1.36004	-0.000402669	6	0.00168871	41	0.0000000E+000	-5.47648e-07
2	0	0	0	0	1	515.819	1.29322	1.2934	-0.000696827	6	0.00168767	41	0.0000000E+000	-9.01278e-07
2	0	0	0	0	1	517.152	1.22659	1.22695	-0.00104055	6	0.00168618	41	0.0000000E+000	-1.2767e-06
2	0	0	1	0	1	518.484	1.15996	1.16011	-0.00145063	6	0.00168414	41	0.0000000E+000	-1.68289e-06
2	0	0	0	0	1	519.817	1.09333	1.09367	-0.00208922	6	0.00168136	41	0.0000000E+000	-2.28491e-06
2	0	0	1	0	1	521.15	1.0267	1.0269	-0.00307636	6	0.00167748	41	0.0000000E+000	-3.15912e-06
2	0	0	0	0	1	522.482	0.960063	0.960338	-0.0047243	6	0.00167189	41	0.0000000E+000	-4.53693e-06
2	0	0	0	0	1	523.815	0.893428	0.893613	-0.00780571	6	0.00166331	41	0.0000000E+000	-6.97528e-06
2	0	0	1	0	1	525.148	0.826799	0.827086	-0.0153383	6	0.00164829	41	0.0000000E+000	-1.26861e-05
2	0	0	0	0	1	526.48	0.760169	0.76047	-0.0491754	6	0.00161071	41	0.0000000E+000	-3.73964e-05
2	0	0	1	0	1	527.813	0.693534	0.693761	-0.0458525	6	0.00152803	41	0.0000000E+000	-3.18107e-05
2	0	0	0	0	1	529.146	0.626904	0.627126	-0.0109189	6	0.00149627	41	0.0000000E+000	-6.84754e-06
2	0	0	0	0	1	530.478	0.560269	0.56054	-0.004854	6	0.00148617	41	0.0000000E+000	-2.72086e-06
2	0	0	1	0	1	531.811	0.493639	0.493753	-0.00335524	6	0.00148048	41	0.0000000E+000	-1.65666e-06
2	0	0	0	0	1	533.143	0.427009	0.427119	-0.00285754	6	0.00147611	41	0.0000000E+000	-1.22051e-06
2	0	0	1	0	1	534.476	0.360374	0.360539	-0.00387121	6	0.00147162	41	0.0000000E+000	-1.39572e-06
2	0	0	1	0	1	535.809	0.293739	0.293868	-0.00932685	6	0.0014632	41	0.0000000E+000	-2.74087e-06
2	0	0	0	0	1	537.141	0.227109	0.227238	-0.00981842	6	0.00144982	41	0.0000000E+000	-2.23112e-06
2	0	0	1	0	1	538.474	0.160479	0.160599	-0.0128779	6	0.00143574	41	0.0000000E+000	-2.06818e-06
2	0	0	0	0	1	539.807	0.0938444	0.0938674	-0.0180536	6	0.00141333	41	0.0000000E+000	-1.69465e-06
2	0	0	1	0	1	541.139	0.0272146	0.0273343	-0.0756859	6	0.0013773	41	0.0000000E+000	-2.06882e-06
2	1	0	0	0	0	541.897	0.0308766	0.0311192	0.0572704	6	0.00134308	41	0.0000000E+000	1.78221e-06
2	1	0	1	0	0	543.23	0.0975112	0.097777	0.0185442	6	0.00138029	41	0.0000000E+000	1.81319e-06
2	1	0	0	0	0	544.562	0.164141	0.164469	0.0113757	6	0.00140053	41	0.0000000E+000	1.87095e-06
2	1	0	0	0	0	545.895	0.230776	0.231043	0.00971321	6	0.00141409	41	0.0000000E+000	2.24417e-06
2	1	0	1	0	0	547.228	0.297406	0.297704	0.00890349	6	0.00142601	41	0.0000000E+000	2.6506e-06
2	0	0	0	0	0	548.56	0.364036	0.364225	0.00248438	6	0.00143405	41	0.0000000E+000	9.04871e-07
2	1	0	1	0	0	549.893	0.430671	0.430918	0.000785089	6	0.00143613	41	0.0000000E+000	3.38309e-07
2	1	0	1	0	0	551.226	0.497306	0.49751	0.000775809	6	0.00143753	41	0.0000000E+000	3.85973e-07
2	1	0	0	0	0	552.558	0.563936	0.56411	0.000873204	6	0.00143916	41	0.0000000E+000	4.92583e-07
2	1	0	1	0	0	553.891	0.630566	0.630654	0.0013003	6	0.00144111	41	0.0000000E+000	8.20037e-07
2	0	0	0	0	0	555.224	0.697201	0.697442	0.00199828	6	0.00144366	41	0.0000000E+000	1.39368e-06
2	0	0	1	0	0	556.556	0.763831	0.76414	0.00254306	6	0.00144692	41	0.0000000E+000	1.94325e-06
2	1	0	1	0	0	557.889	0.830465	0.830851	0.00598352	6	0.00145206	41	0.0000000E+000	4.97142e-06
2	1	0	0	0	0	559.181	0.895096	0.895328	0.00978078	6	0.00146296	41	0.0000000E+000	8.75701e-06
2	1	0	0	0	0	559.276	0.899929	0.900809	0.0112674	6	0.0014639	41	0.0000000E+000	1.01498e-05