File: biologic_multiple_techniques_dataset/multiple_techniques_dataset_01_08_CVA_C01.mpt
EC-Lab ASCII FILE
Nb header lines : 75

Cyclic Voltammetry Advanced

Run on channel : 1 (SN 5836)
User :
Electrode connection : standard
Ewe ctrl range : min = -10.00 V, max = 10.00 V
Ewe,I filtering : <None>
Safety Limits :
	Do not start on E overload
Channel : Grounded
Acquisition started on : 05/05/2022 15:55:02
Saved on :
	File : multiple_techniques_dataset_01_08_CVA_C01.mpr
	Directory : C:\Users\Spectro Inlets\Desktop\Zilien Data Dir\multiple_techniques_dataset\
	Host : 192.168.1.105
Device : SP-200 (SN 0763)
Address : USB
EC-Lab for windows v11.27 (software)
Internet server v11.25 (firmware)
Command interpretor v11.27 (firmware)
Electrode material :
Initial state :
Electrolyte :
Comments :
Cable : standard
Electrode surface area : 0.001 cm²
Characteristic mass : 0.001 g
Equivalent Weight : 0.000 g/eq.
Density : 0.000 g/cm3
Cycle Definition : Charge/Discharge alternance
Ns                  0                   1
Ei (V)              0.000               0.990
vs.                 Ref                 Ref
ti (h:m:s)          0:00:3.0000         0:00:3.0000
dti (s)             1.0000              1.0000
dE/dt               50.000              20.000
dE/dt unit          mV/s                mV/s
E1 (V)              1.000               1.000
vs.                 Ref                 Ref
t1 (h:m:s)          0:00:0.0000         0:00:10.0000
dt1 (s)             0.1000              0.1000
Step percent        80                  80
N                   40                  40
E range min (V)     -10.000             -10.000
E range max (V)     10.000              10.000
I Range             100 µA              100 µA
I Range min         Unset               Unset
I Range max         Unset               Unset
I Range init        Unset               Unset
Bandwidth           1                   1
E2 (V)              0.000               0.000
vs.                 Ref                 Ref
t2 (h:m:s)          0:00:0.0000         0:00:0.0000
dt2 (s)             0.1000              0.1000
nc cycles           1                   444
nr                  1                   1
Reverse Scan        1                   1
Ef (V)              0.100               0.050
vs.                 Eoc                 Eoc
tf (h:m:s)          0:00:3.0000         0:00:10.0000
dtf (s)             0.1000              0.1000

Modify on : 05/05/2022 16:10
Ns                  0                   1
nc cycles                               5

Modify on : 05/05/2022 16:10
Ns                  0                   1
E1 (V)                                  1.100
t1 (h:m:s)                              0:00:20.0000

mode	ox/red	error	control changes	Ns changes	counter inc.	time/s	control/V	Ewe/V	<I>/mA	cycle number	(Q-Qo)/C	I Range	Rcmp/Ohm	P/W
2	0	1	1	0	0	640.999	-6.12583e-05	-0.000383476	-0.250092	1	0.0000000E+000	41	0.0000000E+000	9.59044e-08
2	1	0	0	0	0	644.616	0.0305485	0.0308348	0.164561	1	-0.000313951	41	0.0000000E+000	5.07422e-06
2	1	0	1	0	0	645.948	0.0971783	0.09735	0.0718071	1	-0.000176179	41	0.0000000E+000	6.99042e-06
2	1	0	0	0	0	647.281	0.163808	0.164081	0.0452826	1	-9.94442e-05	41	0.0000000E+000	7.43002e-06
2	1	0	1	0	0	648.614	0.230443	0.230637	0.0315375	1	-4.84421e-05	41	0.0000000E+000	7.27372e-06
2	1	0	0	0	0	649.946	0.297073	0.297336	0.0228845	1	-1.31048e-05	41	0.0000000E+000	6.80438e-06
2	1	0	0	0	0	651.279	0.363708	0.363985	0.0107336	1	9.67166e-06	41	0.0000000E+000	3.90686e-06
2	1	0	1	0	0	652.611	0.430338	0.430514	0.00597107	1	2.05301e-05	41	0.0000000E+000	2.57063e-06
2	1	0	0	0	0	653.944	0.496968	0.497076	0.00412542	1	2.75743e-05	41	0.0000000E+000	2.05065e-06
2	1	0	1	0	0	655.277	0.563603	0.563738	0.00339794	1	3.3099e-05	41	0.0000000E+000	1.91555e-06
2	1	0	0	0	0	656.609	0.630233	0.630548	0.00319342	1	3.78831e-05	41	0.0000000E+000	2.0136e-06
2	1	0	0	0	0	657.942	0.696868	0.697067	0.00338468	1	4.25339e-05	41	0.0000000E+000	2.35935e-06
2	0	0	1	0	0	659.275	0.763498	0.763806	0.00361247	1	4.74217e-05	41	0.0000000E+000	2.75923e-06
2	1	0	0	0	0	660.607	0.830128	0.830394	0.00669309	1	5.37088e-05	41	0.0000000E+000	5.5579e-06
2	1	0	1	0	0	661.94	0.896762	0.897036	0.010695	1	6.61941e-05	41	0.0000000E+000	9.59379e-06
2	1	0	1	0	0	663.273	0.963397	0.9638	0.011034	1	8.0924e-05	41	0.0000000E+000	1.06346e-05
2	1	0	0	0	0	664.008	0.999544	0.999959	0.00472856	1	8.89945e-05	41	0.0000000E+000	4.72837e-06
2	1	0	0	0	0	665.211	0.939406	0.939589	-0.00270962	1	8.81566e-05	41	0.0000000E+000	-2.54593e-06
2	0	0	1	0	0	666.544	0.872776	0.872923	-0.00591837	1	8.22997e-05	41	0.0000000E+000	-5.16629e-06
2	0	0	1	0	0	667.876	0.806141	0.80638	-0.00836526	1	7.20388e-05	41	0.0000000E+000	-6.74558e-06
2	0	0	0	0	0	669.209	0.739511	0.739662	-0.00447248	1	6.28733e-05	41	0.0000000E+000	-3.30812e-06
2	0	0	1	0	0	670.541	0.672881	0.673071	-0.00187949	1	5.85313e-05	41	0.0000000E+000	-1.26503e-06
2	0	0	0	0	0	671.874	0.606246	0.606459	-0.00100035	1	5.62346e-05	41	0.0000000E+000	-6.06669e-07
2	0	0	1	0	0	673.207	0.539616	0.539773	-0.000843914	1	5.46372e-05	41	0.0000000E+000	-4.55522e-07
2	1	0	1	0	0	674.539	0.472981	0.473	-0.000792642	1	5.32452e-05	41	0.0000000E+000	-3.7492e-07
2	0	0	0	0	0	675.872	0.406351	0.406582	-0.000975147	1	5.17978e-05	41	0.0000000E+000	-3.96477e-07
2	1	0	1	0	0	677.205	0.339721	0.33982	-0.00314831	1	4.91696e-05	41	0.0000000E+000	-1.06986e-06
2	0	0	0	0	0	678.537	0.273086	0.273158	-0.00974146	1	4.04736e-05	41	0.0000000E+000	-2.66095e-06
2	0	0	0	0	0	679.87	0.206452	0.206552	-0.0087128	1	2.79777e-05	41	0.0000000E+000	-1.79965e-06
2	0	0	1	0	0	681.203	0.139822	0.139852	-0.0143425	1	1.39245e-05	41	0.0000000E+000	-2.00582e-06
2	0	0	0	0	0	682.535	0.0731915	0.0733289	-0.0160982	1	-8.19205e-06	41	0.0000000E+000	-1.18046e-06
2	0	1	0	0	1	683.996	6.12583e-05	0.0028524	-0.250092	1	-0.000140025	41	0.0000000E+000	-7.13362e-07
2	1	0	0	0	1	685.332	0.0668584	0.067146	0.0463375	2	-4.78805e-05	41	0.0000000E+000	3.11138e-06
2	1	0	1	0	1	686.665	0.133493	0.133742	0.0235349	2	-4.27576e-06	41	0.0000000E+000	3.1476e-06
2	1	0	0	0	1	687.997	0.200123	0.200223	0.013356	2	1.8633e-05	41	0.0000000E+000	2.67417e-06
2	1	0	0	0	1	689.33	0.266758	0.266854	0.0106121	2	3.43962e-05	41	0.0000000E+000	2.83187e-06
2	1	0	1	0	1	690.663	0.333388	0.333629	0.00707545	2	4.7442e-05	41	0.0000000E+000	2.36057e-06
2	1	0	0	0	1	691.995	0.400018	0.400162	0.00199048	2	5.26008e-05	41	0.0000000E+000	7.96512e-07
2	1	0	1	0	1	693.328	0.466653	0.466798	0.00140032	2	5.50862e-05	41	0.0000000E+000	6.53669e-07
2	1	0	1	0	1	694.661	0.533288	0.53344	0.00131291	2	5.73569e-05	41	0.0000000E+000	7.00357e-07
2	1	0	0	0	1	695.993	0.599918	0.60001	0.00146912	2	5.97348e-05	41	0.0000000E+000	8.81488e-07
2	1	0	1	0	1	697.326	0.666548	0.666854	0.00198827	2	6.2444e-05	41	0.0000000E+000	1.32589e-06
2	0	0	0	0	1	698.658	0.733178	0.733528	0.00253587	2	6.57031e-05	41	0.0000000E+000	1.86013e-06
2	0	0	1	0	1	699.991	0.799813	0.800143	0.00372705	2	6.97272e-05	41	0.0000000E+000	2.98217e-06
2	1	0	1	0	1	701.324	0.866448	0.866742	0.00894287	2	7.82411e-05	41	0.0000000E+000	7.75117e-06
2	1	0	0	0	1	702.656	0.933078	0.933436	0.0104064	2	9.14533e-05	41	0.0000000E+000	9.71366e-06
2	1	0	1	0	1	703.922	0.996378	0.996649	0.0104266	2	0.000104794	41	0.0000000E+000	1.03917e-05
2	1	0	0	0	1	704.668	0.966061	0.966292	-0.00175688	2	0.000105609	41	0.0000000E+000	-1.69766e-06
2	0	0	1	0	1	706.001	0.899431	0.899569	-0.00487203	2	0.000100954	41	0.0000000E+000	-4.38272e-06
2	0	0	0	0	1	707.333	0.832796	0.832928	-0.00822444	2	9.20016e-05	41	0.0000000E+000	-6.85037e-06
2	0	0	0	0	1	708.666	0.766161	0.766404	-0.00652845	2	8.11158e-05	41	0.0000000E+000	-5.00343e-06
2	0	0	1	0	1	709.999	0.699531	0.699823	-0.00285617	2	7.48256e-05	41	0.0000000E+000	-1.99881e-06
2	0	0	0	0	1	711.331	0.632901	0.633161	-0.00147648	2	7.15799e-05	41	0.0000000E+000	-9.34849e-07
2	0	0	1	0	1	712.664	0.566266	0.566483	-0.0011571	2	6.94234e-05	41	0.0000000E+000	-6.55476e-07
2	1	0	0	0	1	713.997	0.499636	0.499874	-0.00107291	2	6.76358e-05	41	0.0000000E+000	-5.3632e-07
2	1	0	0	0	1	715.329	0.433001	0.433188	-0.00107322	2	6.59191e-05	41	0.0000000E+000	-4.64906e-07
2	0	0	1	0	1	716.662	0.366371	0.366511	-0.00204869	2	6.37287e-05	41	0.0000000E+000	-7.50867e-07
2	0	0	0	0	1	717.994	0.299741	0.299764	-0.00749693	2	5.80621e-05	41	0.0000000E+000	-2.24731e-06
2	0	0	1	0	1	719.327	0.233106	0.233102	-0.00956822	2	4.53282e-05	41	0.0000000E+000	-2.23037e-06
2	0	0	0	0	1	720.66	0.166476	0.166441	-0.0105892	2	3.29847e-05	41	0.0000000E+000	-1.76247e-06
2	0	0	0	0	1	721.992	0.0998415	0.0999347	-0.0171401	2	1.28563e-05	41	0.0000000E+000	-1.71289e-06
2	0	0	1	0	1	723.325	0.0332117	0.0334061	-0.0483722	2	-1.58432e-05	41	0.0000000E+000	-1.61593e-06
2	1	0	1	0	0	724.796	0.0405385	0.0407642	0.0755954	2	-6.67247e-05	41	0.0000000E+000	3.08158e-06
2	1	0	0	0	0	726.129	0.107173	0.10741	0.0291922	2	-7.3947e-06	41	0.0000000E+000	3.13554e-06
2	1	0	1	0	0	727.461	0.173803	0.173979	0.0150826	2	2.13355e-05	41	0.0000000E+000	2.62405e-06
2	1	0	1	0	0	728.794	0.240438	0.240658	0.0109981	2	3.83594e-05	41	0.0000000E+000	2.64678e-06
2	1	0	0	0	0	730.126	0.307068	0.307337	0.0099624	2	5.22308e-05	41	0.0000000E+000	3.06181e-06
2	1	0	1	0	0	731.459	0.373698	0.374028	0.00276773	2	6.04565e-05	41	0.0000000E+000	1.03521e-06
2	1	0	0	0	0	732.792	0.440333	0.440511	0.00134228	2	6.32292e-05	41	0.0000000E+000	5.91291e-07
2	1	0	0	0	0	734.124	0.506968	0.50711	0.00119581	2	6.53097e-05	41	0.0000000E+000	6.06408e-07
2	1	0	1	0	0	735.457	0.573598	0.573638	0.0012245	2	6.74382e-05	41	0.0000000E+000	7.02421e-07
2	1	0	0	0	0	736.79	0.640228	0.64044	0.00160186	2	6.97874e-05	41	0.0000000E+000	1.0259e-06
2	0	0	1	0	0	738.122	0.706863	0.707152	0.00214256	2	7.26023e-05	41	0.0000000E+000	1.51512e-06
2	0	0	0	0	0	739.455	0.773492	0.773797	0.00272561	2	7.60132e-05	41	0.0000000E+000	2.10907e-06
2	1	0	0	0	0	740.788	0.840127	0.840385	0.00676206	2	8.18678e-05	41	0.0000000E+000	5.68273e-06
2	1	0	1	0	0	742.12	0.906758	0.907031	0.00990059	2	9.36384e-05	41	0.0000000E+000	8.98014e-06
2	1	0	0	0	0	742.797	0.925915	0.92571	0.00419877	2	9.90225e-05	41	0.0000000E+000	3.88685e-06
2	1	0	0	0	0	743.297	0.925915	0.926039	0.00252635	2	0.000100536	41	0.0000000E+000	2.3395e-06
2	1	0	0	0	0	743.797	0.925915	0.925022	0.00186546	2	0.000101583	41	0.0000000E+000	1.72559e-06
2	1	0	0	0	0	744.297	0.925915	0.926642	0.00151074	2	0.000102403	41	0.0000000E+000	1.39991e-06
2	1	0	0	0	0	744.797	0.925915	0.926134	0.00126396	2	0.000103084	41	0.0000000E+000	1.1706e-06
2	1	0	0	0	0	745.297	0.925915	0.925951	0.00110129	2	0.000103667	41	0.0000000E+000	1.01974e-06
2	1	0	1	0	0	748.497	0.989882	0.990386	0.00145602	3	0.00011563	41	0.0000000E+000	1.44202e-06
2	1	0	1	0	0	749.298	0.999877	1.00002	0.00161649	3	0.000117382	41	0.0000000E+000	1.61653e-06
2	1	0	1	0	0	749.798	0.999877	0.999925	0.0013383	3	0.000118097	41	0.0000000E+000	1.3382e-06
2	1	0	1	0	0	750.298	0.999877	0.999665	0.00119106	3	0.000118715	41	0.0000000E+000	1.19066e-06
2	1	0	1	0	0	750.798	0.999877	1.00001	0.00106799	3	0.000119269	41	0.0000000E+000	1.068e-06
2	1	0	1	0	0	751.298	0.999877	1.00068	0.000978609	3	0.000119775	41	0.0000000E+000	9.79272e-07
2	1	0	1	0	0	751.798	0.999877	1.00053	0.000915274	3	0.000120244	41	0.0000000E+000	9.15758e-07
2	1	0	1	0	0	752.298	0.999877	0.999929	0.000845424	3	0.000120678	41	0.0000000E+000	8.45364e-07
2	1	0	1	0	0	752.798	0.999877	1.00056	0.000794627	3	0.000121088	41	0.0000000E+000	7.95071e-07
2	1	0	1	0	0	753.298	0.999877	1.00088	0.000764819	3	0.000121473	41	0.0000000E+000	7.65489e-07
2	1	0	1	0	0	753.798	0.999877	0.999967	0.000713842	3	0.000121842	41	0.0000000E+000	7.13818e-07
2	1	0	1	0	0	754.298	0.999877	0.999818	0.00069154	3	0.000122192	41	0.0000000E+000	6.91414e-07
2	1	0	1	0	0	754.798	0.999877	0.999237	0.00065212	3	0.000122527	41	0.0000000E+000	6.51623e-07
2	1	0	1	0	0	755.298	0.999877	1.00034	0.000630655	3	0.000122848	41	0.0000000E+000	6.3087e-07
2	1	0	1	0	0	755.798	0.999877	1.00067	0.000587683	3	0.000123154	41	0.0000000E+000	5.88075e-07
2	1	0	1	0	0	756.298	0.999877	1.00057	0.000582371	3	0.000123449	41	0.0000000E+000	5.82703e-07
2	1	0	1	0	0	756.798	0.999877	1.00062	0.00056655	3	0.000123734	41	0.0000000E+000	5.66904e-07
2	1	0	1	0	0	757.298	0.999877	0.99999	0.000542995	3	0.000124011	41	0.0000000E+000	5.4299e-07
2	1	0	1	0	0	757.798	0.999877	1.00007	0.000531992	3	0.000124277	41	0.0000000E+000	5.32028e-07
2	1	0	1	0	0	758.298	0.999877	0.999241	0.00050887	3	0.000124535	41	0.0000000E+000	5.08484e-07
2	1	0	1	0	0	758.798	0.999877	1.00025	0.000497666	3	0.000124784	41	0.0000000E+000	4.97788e-07
2	0	0	1	0	0	760.02	0.979719	0.980004	-0.00071718	3	0.000124281	41	0.0000000E+000	-7.0284e-07
2	0	0	1	0	0	763.352	0.913087	0.913223	-0.00211334	3	0.000119192	41	0.0000000E+000	-1.92995e-06
2	0	0	1	0	0	766.684	0.846455	0.846728	-0.00383039	3	0.000108966	41	0.0000000E+000	-3.2433e-06
2	0	0	1	0	0	770.015	0.779823	0.780016	-0.00365097	3	9.48775e-05	41	0.0000000E+000	-2.84781e-06
2	0	0	1	0	0	773.347	0.713191	0.713351	-0.00154613	3	8.62704e-05	41	0.0000000E+000	-1.10293e-06
2	0	0	1	0	0	776.678	0.64656	0.646721	-0.000856005	3	8.20923e-05	41	0.0000000E+000	-5.53597e-07
2	0	0	1	0	0	780.01	0.579928	0.580152	-0.000670068	3	7.9214e-05	41	0.0000000E+000	-3.88741e-07
2	0	0	1	0	0	783.342	0.513296	0.513437	-0.000627583	3	7.66761e-05	41	0.0000000E+000	-3.22224e-07
2	0	0	1	0	0	786.673	0.446664	0.446808	-0.000640605	3	7.41761e-05	41	0.0000000E+000	-2.86227e-07
2	0	0	1	0	0	790.005	0.380032	0.380283	-0.000886164	3	7.13744e-05	41	0.0000000E+000	-3.36993e-07
2	1	0	1	0	0	793.336	0.3134	0.313425	-0.00249081	3	6.61612e-05	41	0.0000000E+000	-7.80683e-07
2	1	0	1	0	0	796.668	0.246768	0.246881	-0.00445528	3	5.31595e-05	41	0.0000000E+000	-1.09992e-06
2	1	0	1	0	0	800	0.180134	0.180165	-0.0041591	3	3.95869e-05	41	0.0000000E+000	-7.49325e-07
2	0	0	1	0	0	803.331	0.113502	0.113663	-0.00784115	3	2.01244e-05	41	0.0000000E+000	-8.91247e-07
2	0	0	1	0	0	806.663	0.0468701	0.0471177	-0.0124793	3	-7.42984e-06	41	0.0000000E+000	-5.87995e-07
2	0	1	0	0	1	809.423	0.00855706	0.00866955	0.0678719	3	-0.000228651	41	0.0000000E+000	5.88418e-07
2	1	0	0	0	1	812.755	0.0751888	0.0754156	0.0142247	3	-8.46405e-05	41	0.0000000E+000	1.07276e-06
2	1	0	0	0	1	816.086	0.141821	0.142067	0.00607319	3	-5.46495e-05	41	0.0000000E+000	8.62801e-07
2	0	0	0	0	1	819.418	0.208453	0.208623	0.00421905	3	-3.91322e-05	41	0.0000000E+000	8.80192e-07
2	0	0	0	0	1	822.749	0.275085	0.275282	0.00395851	3	-2.61047e-05	41	0.0000000E+000	1.08971e-06
2	0	0	0	0	1	826.081	0.341717	0.341957	0.0018646	3	-1.48103e-05	41	0.0000000E+000	6.37612e-07
2	1	0	1	0	1	829.413	0.408351	0.408616	0.000568123	3	-1.11347e-05	41	0.0000000E+000	2.32144e-07
2	0	0	1	0	1	832.744	0.474982	0.475283	0.000464084	3	-9.13477e-06	41	0.0000000E+000	2.20571e-07
2	1	0	1	0	1	834.119	0.496804	0.496783	0.000240552	3	-8.42326e-06	41	0.0000000E+000	1.19502e-07
2	0	0	1	0	1	834.619	0.496804	0.496298	0.000190763	3	-8.32074e-06	41	0.0000000E+000	9.46755e-08
2	0	0	1	0	1	835.119	0.496804	0.49652	0.000160804	3	-8.23362e-06	41	0.0000000E+000	7.98426e-08
2	0	0	1	0	1	835.619	0.496804	0.497051	0.00013082	3	-8.16481e-06	41	0.0000000E+000	6.50243e-08
2	0	0	1	0	1	836.119	0.496804	0.497265	0.000106306	3	-8.10523e-06	41	0.0000000E+000	5.28623e-08
2	1	0	1	0	1	836.619	0.496804	0.496913	8.25464e-05	3	-8.05923e-06	41	0.0000000E+000	4.10184e-08
2	1	0	1	0	1	837.119	0.496804	0.496948	7.46921e-05	3	-8.01857e-06	41	0.0000000E+000	3.71181e-08
2	1	0	1	0	1	837.619	0.496804	0.496741	5.47442e-05	3	-7.98942e-06	41	0.0000000E+000	2.71937e-08
2	0	0	1	0	1	838.119	0.496804	0.496806	4.63517e-05	3	-7.96178e-06	41	0.0000000E+000	2.30278e-08
2	1	0	1	0	1	838.619	0.496804	0.496932	3.22013e-05	3	-7.94509e-06	41	0.0000000E+000	1.60019e-08
2	0	0	1	0	1	839.119	0.496804	0.497364	2.74596e-05	3	-7.93047e-06	41	0.0000000E+000	1.36574e-08
2	0	0	1	0	1	839.619	0.496804	0.496451	1.40177e-05	3	-7.92186e-06	41	0.0000000E+000	6.9591e-09
2	1	0	1	0	1	840.119	0.496804	0.496642	1.01944e-05	3	-7.91876e-06	41	0.0000000E+000	5.06296e-09
2	1	0	1	0	1	840.619	0.496804	0.496241	-1.7449e-05	3	-7.91968e-06	41	0.0000000E+000	-8.65893e-09
2	0	0	1	0	1	841.119	0.496804	0.496986	-1.84438e-05	3	-7.92711e-06	41	0.0000000E+000	-9.16631e-09
2	0	0	1	0	1	841.619	0.496804	0.497024	-2.371e-05	3	-7.93715e-06	41	0.0000000E+000	-1.17844e-08
2	0	0	1	0	1	842.119	0.496804	0.497536	-3.31607e-05	3	-7.95186e-06	41	0.0000000E+000	-1.64986e-08
2	0	0	1	0	1	842.619	0.496804	0.497035	-3.01535e-05	3	-7.9666e-06	41	0.0000000E+000	-1.49873e-08
2	1	0	1	0	1	843.119	0.496804	0.497799	-4.62132e-05	3	-7.98632e-06	41	0.0000000E+000	-2.30049e-08
2	1	0	1	0	1	843.619	0.496804	0.496806	-4.32961e-05	3	-8.00934e-06	41	0.0000000E+000	-2.15098e-08
2	0	0	1	0	1	844.845	0.476314	0.47641	-0.000304296	3	-8.42394e-06	41	0.0000000E+000	-1.4497e-07
2	0	0	1	0	1	848.176	0.409682	0.409813	-0.000502551	3	-1.01629e-05	41	0.0000000E+000	-2.05952e-07
2	0	0	1	0	1	851.508	0.34305	0.34318	-0.00120868	3	-1.31118e-05	41	0.0000000E+000	-4.14796e-07
2	1	0	1	0	1	854.839	0.276418	0.276454	-0.00422449	3	-2.19527e-05	41	0.0000000E+000	-1.16788e-06
2	1	0	1	0	1	858.171	0.209786	0.20988	-0.00392007	3	-3.6313e-05	41	0.0000000E+000	-8.22741e-07
2	1	0	1	0	1	861.503	0.143154	0.143248	-0.00576414	3	-5.10213e-05	41	0.0000000E+000	-8.25702e-07
2	0	0	1	0	1	864.834	0.076522	0.0765668	-0.00694377	3	-7.41476e-05	41	0.0000000E+000	-5.31662e-07
2	0	0	0	0	1	868.066	0.0118882	0.0120444	-0.161843	3	-0.000177406	41	0.0000000E+000	-1.94929e-06
2	1	0	0	0	0	871.076	0.048535	0.0487133	0.0299152	3	-0.000189725	41	0.0000000E+000	1.45727e-06
2	1	0	0	0	0	874.408	0.115167	0.115356	0.00784444	3	-0.000142214	41	0.0000000E+000	9.04902e-07
2	0	0	0	0	0	877.739	0.181801	0.181992	0.00430999	3	-0.000122842	41	0.0000000E+000	7.84383e-07
2	0	0	0	0	0	881.071	0.248433	0.248675	0.00378873	3	-0.00010931	41	0.0000000E+000	9.42161e-07
2	0	0	0	0	0	884.402	0.315065	0.315252	0.00343833	3	-9.64396e-05	41	0.0000000E+000	1.08394e-06
2	1	0	0	0	0	887.734	0.381697	0.381915	0.000799155	3	-9.02457e-05	41	0.0000000E+000	3.05209e-07
2	1	0	0	0	0	891.066	0.448329	0.448404	0.000483114	3	-8.79059e-05	41	0.0000000E+000	2.1663e-07
2	1	0	0	0	0	894.397	0.514961	0.515077	0.000511493	3	-8.58668e-05	41	0.0000000E+000	2.63458e-07
2	1	0	0	0	0	902.125	0.581592	0.581815	0.00044566	3	-8.33856e-05	41	0.0000000E+000	2.59292e-07
2	1	0	0	0	0	905.457	0.648224	0.648435	0.000747232	3	-8.10584e-05	41	0.0000000E+000	4.84531e-07
2	1	0	1	0	0	908.788	0.714858	0.715073	0.000998894	3	-7.7682e-05	41	0.0000000E+000	7.14282e-07
2	1	0	1	0	0	912.12	0.78149	0.781768	0.00118985	3	-7.3713e-05	41	0.0000000E+000	9.30183e-07
2	1	0	1	0	0	915.452	0.848122	0.848329	0.00294145	3	-6.70775e-05	41	0.0000000E+000	2.49532e-06
2	1	0	1	0	0	918.783	0.914754	0.914913	0.00419638	3	-5.42984e-05	41	0.0000000E+000	3.83932e-06
2	1	0	1	0	0	922.115	0.981386	0.981475	0.00443774	3	-3.94532e-05	41	0.0000000E+000	4.35553e-06
2	1	0	1	0	0	923.223	0.999877	0.999883	0.00311917	4	-3.46366e-05	41	0.0000000E+000	3.1188e-06
2	1	0	1	0	0	923.723	0.999877	1.00015	0.00224978	4	-3.33697e-05	41	0.0000000E+000	2.25013e-06
2	1	0	1	0	0	924.223	0.999877	0.999715	0.001842	4	-3.2378e-05	41	0.0000000E+000	1.84147e-06
2	1	0	1	0	0	924.723	0.999877	1.00105	0.00155361	4	-3.1547e-05	41	0.0000000E+000	1.55525e-06
2	1	0	1	0	0	925.223	0.999877	0.99944	0.00137737	4	-3.08231e-05	41	0.0000000E+000	1.3766e-06
2	1	0	1	0	0	925.723	0.999877	1.00044	0.00125434	4	-3.01728e-05	41	0.0000000E+000	1.2549e-06
2	1	0	1	0	0	926.223	0.999877	0.999478	0.00113466	4	-2.95858e-05	41	0.0000000E+000	1.13407e-06
2	1	0	1	0	0	926.723	0.999877	0.99973	0.00104115	4	-2.90474e-05	41	0.0000000E+000	1.04087e-06
2	1	0	1	0	0	927.223	0.999877	1.00069	0.000963522	4	-2.85498e-05	41	0.0000000E+000	9.64186e-07
2	1	0	1	0	0	927.723	0.999877	1.00001	0.000903208	4	-2.80857e-05	41	0.0000000E+000	9.03212e-07
2	1	0	1	0	0	928.223	0.999877	0.999631	0.000857346	4	-2.76462e-05	41	0.0000000E+000	8.5703e-07
2	1	0	1	0	0	928.723	0.999877	0.999692	0.000794151	4	-2.72373e-05	41	0.0000000E+000	7.93906e-07
2	1	0	1	0	0	929.223	0.999877	1.00052	0.000771116	4	-2.68447e-05	41	0.0000000E+000	7.71518e-07
2	1	0	1	0	0	929.723	0.999877	0.999467	0.000724871	4	-2.64701e-05	41	0.0000000E+000	7.24484e-07
2	1	0	1	0	0	930.223	0.999877	1.00025	0.000701432	4	-2.61147e-05	41	0.0000000E+000	7.01607e-07
2	1	0	1	0	0	930.723	0.999877	0.999952	0.000675066	4	-2.57724e-05	41	0.0000000E+000	6.75033e-07
2	1	0	1	0	0	931.223	0.999877	1.00017	0.000644738	4	-2.54463e-05	41	0.0000000E+000	6.44845e-07
2	1	0	1	0	0	931.723	0.999877	1.00003	0.000621237	4	-2.51304e-05	41	0.0000000E+000	6.21255e-07
2	1	0	1	0	0	932.223	0.999877	0.999677	0.000597141	4	-2.48271e-05	41	0.0000000E+000	5.96948e-07
2	1	0	1	0	0	932.723	0.999877	0.999898	0.000576674	4	-2.45377e-05	41	0.0000000E+000	5.76616e-07
2	1	0	1	0	0	933.379	0.993047	0.993273	-0.000334561	4	-2.45095e-05	41	0.0000000E+000	-3.32311e-07
2	0	0	1	0	0	936.711	0.926415	0.926523	-0.00176977	4	-2.85588e-05	41	0.0000000E+000	-1.63973e-06
2	0	0	1	0	0	940.042	0.859781	0.859862	-0.00327244	4	-3.73094e-05	41	0.0000000E+000	-2.81385e-06
2	0	0	1	0	0	943.374	0.79315	0.793453	-0.00365383	4	-5.01634e-05	41	0.0000000E+000	-2.89914e-06
2	0	0	1	0	0	946.705	0.726517	0.726669	-0.00167698	4	-5.92916e-05	41	0.0000000E+000	-1.21861e-06
2	0	0	1	0	0	950.037	0.659886	0.660072	-0.000907512	4	-6.37414e-05	41	0.0000000E+000	-5.99024e-07
2	0	0	1	0	0	953.369	0.593254	0.593575	-0.000686029	4	-6.67026e-05	41	0.0000000E+000	-4.0721e-07
2	0	0	1	0	0	956.7	0.526622	0.526809	-0.000629418	4	-6.92517e-05	41	0.0000000E+000	-3.31583e-07
2	0	0	1	0	0	960.032	0.45999	0.460111	-0.000621928	4	-7.17135e-05	41	0.0000000E+000	-2.86156e-07
2	0	0	1	0	0	963.363	0.393358	0.393588	-0.000774958	4	-7.43473e-05	41	0.0000000E+000	-3.05014e-07
2	0	0	0	0	0	966.695	0.326724	0.326889	-0.00182045	4	-7.85638e-05	41	0.0000000E+000	-5.95084e-07
2	1	0	0	0	0	970.027	0.260092	0.26016	-0.00450038	4	-8.99813e-05	41	0.0000000E+000	-1.17082e-06
2	1	0	0	0	0	973.358	0.19346	0.193557	-0.00390127	4	-0.000103879	41	0.0000000E+000	-7.55117e-07
2	0	0	0	0	0	976.69	0.126828	0.126827	-0.00722254	4	-0.000120888	41	0.0000000E+000	-9.16011e-07
2	0	0	0	0	0	980.022	0.0601961	0.0604036	-0.00874357	4	-0.000146286	41	0.0000000E+000	-5.28143e-07
2	0	1	1	0	1	983.023	6.12583e-05	0.00065185	-0.250092	4	-0.000372519	41	0.0000000E+000	-1.63023e-07
2	1	0	1	0	1	986.113	0.0618629	0.0621694	0.0190666	4	-0.0002396	41	0.0000000E+000	1.18536e-06
2	1	0	1	0	1	989.445	0.128495	0.128772	0.00683391	4	-0.000204995	41	0.0000000E+000	8.80017e-07
2	0	0	1	0	1	992.777	0.195127	0.195418	0.00411784	4	-0.000188204	41	0.0000000E+000	8.04703e-07
2	0	0	1	0	1	996.108	0.261759	0.261921	0.00388767	4	-0.000175086	41	0.0000000E+000	1.01826e-06
2	0	0	1	0	1	999.44	0.328391	0.328523	0.00266279	4	-0.000162713	41	0.0000000E+000	8.74788e-07
2	1	0	1	0	1	1002.77	0.395023	0.395202	0.000670574	4	-0.000158001	41	0.0000000E+000	2.65013e-07
2	1	0	1	0	1	1006.1	0.461655	0.461962	0.000456623	4	-0.000155868	41	0.0000000E+000	2.10943e-07
2	1	0	1	0	1	1009.43	0.528287	0.528345	0.000502464	4	-0.000153883	41	0.0000000E+000	2.65474e-07
2	1	0	1	0	1	1012.77	0.594918	0.595118	0.000554091	4	-0.000151747	41	0.0000000E+000	3.29749e-07
2	1	0	1	0	1	1016.1	0.66155	0.661579	0.000765019	4	-0.000149191	41	0.0000000E+000	5.06121e-07
2	1	0	1	0	1	1019.43	0.728182	0.72837	0.000970186	4	-0.000145901	41	0.0000000E+000	7.06655e-07
2	1	0	1	0	1	1022.76	0.794814	0.795092	0.00131858	4	-0.000141917	41	0.0000000E+000	1.04839e-06
2	1	0	1	0	1	1026.09	0.861448	0.861626	0.00336226	4	-0.00013406	41	0.0000000E+000	2.89701e-06
2	1	0	1	0	1	1029.42	0.92808	0.928229	0.00422496	4	-0.000120764	41	0.0000000E+000	3.92173e-06
2	1	0	1	0	1	1032.47	0.989049	0.989038	0.00439216	4	-0.000107248	41	0.0000000E+000	4.34402e-06
2	1	0	1	0	1	1034.87	1.03702	1.03729	0.00461269	5	-9.6221e-05	41	0.0000000E+000	4.78468e-06
2	1	0	1	0	1	1037.94	1.09849	1.09867	0.00497897	5	-8.11657e-05	41	0.0000000E+000	5.47026e-06
2	1	0	0	0	1	1038.51	1.10016	1.10039	0.00324119	5	-7.89697e-05	41	0.0000000E+000	3.56658e-06
2	1	0	0	0	1	1039.01	1.10016	1.10066	0.00263078	5	-7.7543e-05	41	0.0000000E+000	2.89558e-06
2	1	0	0	0	1	1039.51	1.10016	1.09991	0.0022593	5	-7.63486e-05	41	0.0000000E+000	2.48503e-06
2	1	0	0	0	1	1040.01	1.10016	1.10049	0.00199044	5	-7.53018e-05	41	0.0000000E+000	2.19047e-06
2	1	0	0	0	1	1040.51	1.10016	1.10011	0.00179258	5	-7.43691e-05	41	0.0000000E+000	1.97204e-06
2	1	0	0	0	1	1041.01	1.10016	1.09992	0.00162995	5	-7.35216e-05	41	0.0000000E+000	1.79282e-06
2	1	0	0	0	1	1041.51	1.10016	1.10041	0.0015143	5	-7.27404e-05	41	0.0000000E+000	1.66636e-06
2	1	0	0	0	1	1042.01	1.10016	1.10093	0.00141169	5	-7.20169e-05	41	0.0000000E+000	1.55418e-06
2	1	0	0	0	1	1042.51	1.10016	1.10096	0.00132495	5	-7.1337e-05	41	0.0000000E+000	1.45871e-06
2	1	0	0	0	1	1043.01	1.10016	1.10067	0.00124772	5	-7.06981e-05	41	0.0000000E+000	1.37332e-06
2	1	0	0	0	1	1043.51	1.10016	1.10076	0.00117682	5	-7.00919e-05	41	0.0000000E+000	1.29541e-06
2	1	0	0	0	1	1044.01	1.10016	1.10044	0.00111593	5	-6.95206e-05	41	0.0000000E+000	1.22801e-06
2	1	0	0	0	1	1044.51	1.10016	1.09944	0.00108521	5	-6.89718e-05	41	0.0000000E+000	1.19312e-06
2	1	0	0	0	1	1045.01	1.10016	1.10043	0.00102812	5	-6.84485e-05	41	0.0000000E+000	1.13137e-06
2	1	0	0	0	1	1045.51	1.10016	1.10039	0.000981912	5	-6.79465e-05	41	0.0000000E+000	1.08049e-06
2	1	0	0	0	1	1046.01	1.10016	1.10049	0.000949023	5	-6.74649e-05	41	0.0000000E+000	1.04439e-06
2	1	0	0	0	1	1046.51	1.10016	1.09967	0.000918953	5	-6.70001e-05	41	0.0000000E+000	1.01055e-06
2	1	0	0	0	1	1047.01	1.10016	1.0997	0.000876377	5	-6.65564e-05	41	0.0000000E+000	9.6375e-07
2	1	0	0	0	1	1047.51	1.10016	1.09998	0.000862183	5	-6.61207e-05	41	0.0000000E+000	9.48389e-07
2	1	0	0	0	1	1048.01	1.10016	1.10091	0.000823143	5	-6.57032e-05	41	0.0000000E+000	9.06209e-07
2	1	0	0	0	1	1048.51	1.10016	1.10007	0.000808307	5	-6.52941e-05	41	0.0000000E+000	8.89194e-07
2	1	0	0	0	1	1049.01	1.10016	1.1001	0.000787082	5	-6.48972e-05	41	0.0000000E+000	8.65869e-07
2	1	0	0	0	1	1049.51	1.10016	1.10005	0.00075861	5	-6.4513e-05	41	0.0000000E+000	8.34506e-07
2	1	0	0	0	1	1050.01	1.10016	1.10079	0.000736746	5	-6.41394e-05	41	0.0000000E+000	8.11001e-07
2	1	0	0	0	1	1050.51	1.10016	1.10024	0.000726389	5	-6.37772e-05	41	0.0000000E+000	7.99203e-07
2	1	0	0	0	1	1051.01	1.10016	1.09995	0.000697551	5	-6.34238e-05	41	0.0000000E+000	7.67272e-07
2	1	0	0	0	1	1051.51	1.10016	1.10005	0.000684534	5	-6.30776e-05	41	0.0000000E+000	7.53019e-07
2	1	0	0	0	1	1052.01	1.10016	1.09977	0.000668017	5	-6.27394e-05	41	0.0000000E+000	7.34668e-07
2	1	0	0	0	1	1052.51	1.10016	1.10073	0.000660847	5	-6.24103e-05	41	0.0000000E+000	7.27412e-07
2	1	0	0	0	1	1053.01	1.10016	1.10084	0.000635934	5	-6.20862e-05	41	0.0000000E+000	7.00064e-07
2	1	0	0	0	1	1053.51	1.10016	1.10079	0.000612444	5	-6.17734e-05	41	0.0000000E+000	6.74173e-07
2	1	0	0	0	1	1054.01	1.10016	1.09999	0.000620795	5	-6.14618e-05	41	0.0000000E+000	6.8287e-07
2	1	0	0	0	1	1054.51	1.10016	1.10016	0.000603728	5	-6.11581e-05	41	0.0000000E+000	6.64197e-07
2	1	0	0	0	1	1055.01	1.10016	1.1004	0.000586857	5	-6.08624e-05	41	0.0000000E+000	6.45776e-07
2	1	0	0	0	1	1055.51	1.10016	1.10029	0.000580012	5	-6.05708e-05	41	0.0000000E+000	6.3818e-07
2	1	0	0	0	1	1056.01	1.10016	1.10035	0.000569723	5	-6.02838e-05	41	0.0000000E+000	6.26896e-07
2	1	0	0	0	1	1056.51	1.10016	1.10063	0.000556293	5	-6.00045e-05	41	0.0000000E+000	6.12275e-07
2	1	0	0	0	1	1057.01	1.10016	1.10045	0.000544881	5	-5.97309e-05	41	0.0000000E+000	5.99613e-07
2	1	0	0	0	1	1057.51	1.10016	1.10059	0.000522194	5	-5.94601e-05	41	0.0000000E+000	5.74722e-07
2	1	0	0	0	1	1058.01	1.10016	1.10012	0.000532326	5	-5.91924e-05	41	0.0000000E+000	5.85622e-07
2	0	0	1	0	1	1060.35	1.05335	1.05361	-0.000642683	5	-6.02412e-05	41	0.0000000E+000	-6.77136e-07
2	0	0	1	0	1	1063.68	0.986715	0.98689	-0.00169216	5	-6.44339e-05	41	0.0000000E+000	-1.66997e-06
2	0	0	1	0	1	1067.02	0.920083	0.920292	-0.00326127	5	-7.29208e-05	41	0.0000000E+000	-3.00132e-06
2	0	0	1	0	1	1070.35	0.853451	0.853671	-0.00519929	5	-8.74675e-05	41	0.0000000E+000	-4.43848e-06
2	0	0	1	0	1	1073.68	0.78682	0.787006	-0.00492021	5	-0.000105996	41	0.0000000E+000	-3.87223e-06
2	0	0	1	0	1	1077.01	0.720187	0.720466	-0.00213434	5	-0.000117722	41	0.0000000E+000	-1.53772e-06
2	0	0	1	0	1	1080.34	0.653555	0.653741	-0.00111583	5	-0.000123222	41	0.0000000E+000	-7.29462e-07
2	0	0	1	0	1	1083.67	0.586924	0.587107	-0.000798054	5	-0.000126719	41	0.0000000E+000	-4.68543e-07
2	0	0	1	0	1	1087.01	0.520292	0.52036	-0.000711198	5	-0.000129604	41	0.0000000E+000	-3.70079e-07
2	0	0	1	0	1	1090.34	0.45366	0.453937	-0.000703866	5	-0.000132356	41	0.0000000E+000	-3.19511e-07
2	0	0	1	0	1	1093.67	0.387028	0.387229	-0.000886003	5	-0.000135299	41	0.0000000E+000	-3.43086e-07
2	0	0	1	0	1	1097	0.320396	0.320597	-0.00213758	5	-0.000140104	41	0.0000000E+000	-6.853e-07
2	1	0	1	0	1	1100.33	0.253764	0.253797	-0.00455163	5	-0.000152401	41	0.0000000E+000	-1.15519e-06
2	1	0	1	0	1	1103.66	0.187132	0.187207	-0.00406711	5	-0.000166321	41	0.0000000E+000	-7.61391e-07
2	0	0	1	0	1	1107	0.1205	0.120649	-0.00767902	5	-0.000184641	41	0.0000000E+000	-9.26464e-07
2	0	0	1	0	1	1110.33	0.0538661	0.0539729	-0.010032	5	-0.000211084	41	0.0000000E+000	-5.41456e-07
2	0	1	1	0	0	1113.44	0.00855706	0.00870361	0.0719936	5	-0.000433491	41	0.0000000E+000	6.26604e-07
2	1	0	1	0	0	1116.77	0.0751888	0.0754888	0.0128451	5	-0.000290032	41	0.0000000E+000	9.69662e-07
2	1	0	1	0	0	1120.1	0.141821	0.142079	0.0057816	5	-0.000262616	41	0.0000000E+000	8.21444e-07
2	0	0	1	0	0	1123.43	0.208453	0.208714	0.00415098	5	-0.000247545	41	0.0000000E+000	8.66368e-07
2	0	0	1	0	0	1126.76	0.275085	0.275269	0.00396481	5	-0.000234622	41	0.0000000E+000	1.09139e-06
2	0	0	1	0	0	1130.09	0.341717	0.341979	0.00183217	5	-0.000223421	41	0.0000000E+000	6.26564e-07
2	1	0	0	0	0	1133.43	0.408351	0.408569	0.000563694	5	-0.000219793	41	0.0000000E+000	2.30308e-07
2	1	0	0	0	0	1136.76	0.474982	0.475147	0.000464769	5	-0.000217793	41	0.0000000E+000	2.20834e-07
2	1	0	0	0	0	1140.09	0.541614	0.54168	0.000497958	5	-0.000215793	41	0.0000000E+000	2.69733e-07
2	1	0	0	0	0	1143.42	0.608246	0.608392	0.000586795	5	-0.000213623	41	0.0000000E+000	3.57001e-07
2	1	0	0	0	0	1146.75	0.674878	0.675063	0.000823839	5	-0.000210893	41	0.0000000E+000	5.56143e-07
2	1	0	0	0	0	1150.08	0.74151	0.741655	0.000994767	5	-0.000207428	41	0.0000000E+000	7.37774e-07
2	1	0	0	0	0	1153.42	0.808142	0.808301	0.00159825	5	-0.000203121	41	0.0000000E+000	1.29187e-06
2	1	0	0	0	0	1156.75	0.874774	0.875023	0.00363371	5	-0.000193883	41	0.0000000E+000	3.17958e-06
2	1	0	0	0	0	1160.08	0.941406	0.941642	0.00427722	5	-0.000180088	41	0.0000000E+000	4.02761e-06
2	1	0	0	0	0	1162.52	0.990215	0.990237	0.00438988	6	-0.000169228	41	0.0000000E+000	4.34702e-06
2	1	0	0	0	0	1165.53	1.05035	1.05068	0.00465004	6	-0.00015537	41	0.0000000E+000	4.88568e-06
2	1	0	1	0	0	1168.1	1.10016	1.10054	0.00426342	6	-0.000142837	41	0.0000000E+000	4.69208e-06
2	1	0	1	0	0	1168.6	1.10016	1.10018	0.00304243	6	-0.000141132	41	0.0000000E+000	3.34722e-06
2	1	0	1	0	0	1169.1	1.10016	1.10065	0.00249441	6	-0.000139786	41	0.0000000E+000	2.74547e-06
2	1	0	1	0	0	1169.6	1.10016	1.10039	0.00216015	6	-0.000138646	41	0.0000000E+000	2.377e-06
2	1	0	1	0	0	1170.1	1.10016	1.09997	0.00189761	6	-0.000137649	41	0.0000000E+000	2.08732e-06
2	1	0	1	0	0	1170.6	1.10016	1.1005	0.00171628	6	-0.000136754	41	0.0000000E+000	1.88877e-06
2	1	0	1	0	0	1171.1	1.10016	1.10054	0.00156516	6	-0.000135942	41	0.0000000E+000	1.72253e-06
2	1	0	1	0	0	1171.6	1.10016	1.10013	0.00144624	6	-0.000135192	41	0.0000000E+000	1.59105e-06
2	1	0	1	0	0	1172.1	1.10016	1.09982	0.00136219	6	-0.000134498	41	0.0000000E+000	1.49815e-06
2	1	0	1	0	0	1172.6	1.10016	1.10027	0.00126402	6	-0.000133846	41	0.0000000E+000	1.39076e-06
2	1	0	1	0	0	1173.1	1.10016	1.10084	0.00120421	6	-0.000133233	41	0.0000000E+000	1.32563e-06
2	1	0	1	0	0	1173.6	1.10016	1.10008	0.00113894	6	-0.00013265	41	0.0000000E+000	1.25293e-06
2	1	0	1	0	0	1174.1	1.10016	1.10057	0.00107839	6	-0.000132097	41	0.0000000E+000	1.18685e-06
2	1	0	1	0	0	1174.6	1.10016	1.10075	0.00102876	6	-0.00013157	41	0.0000000E+000	1.13241e-06
2	1	0	1	0	0	1175.1	1.10016	1.09992	0.000979284	6	-0.000131069	41	0.0000000E+000	1.07714e-06
2	1	0	1	0	0	1175.6	1.10016	1.09998	0.000949155	6	-0.000130588	41	0.0000000E+000	1.04405e-06
2	1	0	1	0	0	1176.1	1.10016	1.10083	0.000920446	6	-0.000130124	41	0.0000000E+000	1.01325e-06
2	1	0	1	0	0	1176.6	1.10016	1.1006	0.000882761	6	-0.000129677	41	0.0000000E+000	9.71566e-07
2	1	0	1	0	0	1177.1	1.10016	1.10011	0.000839937	6	-0.000129247	41	0.0000000E+000	9.24021e-07
2	1	0	1	0	0	1177.6	1.10016	1.10062	0.000826282	6	-0.00012883	41	0.0000000E+000	9.09425e-07
2	1	0	1	0	0	1178.1	1.10016	1.10061	0.000787485	6	-0.00012843	41	0.0000000E+000	8.66712e-07
2	1	0	1	0	0	1178.6	1.10016	1.10123	0.000782575	6	-0.000128037	41	0.0000000E+000	8.61798e-07
2	1	0	1	0	0	1179.1	1.10016	1.10041	0.000752434	6	-0.000127657	41	0.0000000E+000	8.27985e-07
2	1	0	1	0	0	1179.6	1.10016	1.10074	0.000721659	6	-0.00012729	41	0.0000000E+000	7.9436e-07
2	1	0	1	0	0	1180.1	1.10016	1.09962	0.000714146	6	-0.000126932	41	0.0000000E+000	7.85291e-07
2	1	0	1	0	0	1180.6	1.10016	1.10067	0.000688782	6	-0.00012658	41	0.0000000E+000	7.5812e-07
2	1	0	1	0	0	1181.1	1.10016	1.10053	0.000670555	6	-0.00012624	41	0.0000000E+000	7.37964e-07
2	1	0	1	0	0	1181.6	1.10016	1.10071	0.00067253	6	-0.000125907	41	0.0000000E+000	7.40263e-07
2	1	0	1	0	0	1182.1	1.10016	1.09999	0.000641383	6	-0.000125584	41	0.0000000E+000	7.05515e-07
2	1	0	1	0	0	1182.6	1.10016	1.10034	0.000632342	6	-0.000125265	41	0.0000000E+000	6.95794e-07
2	1	0	1	0	0	1183.1	1.10016	1.09948	0.00061799	6	-0.000124954	41	0.0000000E+000	6.79471e-07
2	1	0	1	0	0	1183.6	1.10016	1.10007	0.000599248	6	-0.000124648	41	0.0000000E+000	6.59214e-07
2	1	0	1	0	0	1184.1	1.10016	1.10071	0.000585953	6	-0.000124352	41	0.0000000E+000	6.44967e-07
2	1	0	1	0	0	1184.6	1.10016	1.10015	0.000583948	6	-0.000124059	41	0.0000000E+000	6.4243e-07
2	1	0	1	0	0	1185.1	1.10016	1.1005	0.000562223	6	-0.000123776	41	0.0000000E+000	6.18727e-07
2	1	0	1	0	0	1185.6	1.10016	1.10031	0.000549138	6	-0.000123496	41	0.0000000E+000	6.04224e-07
2	1	0	1	0	0	1186.1	1.10016	1.10064	0.000545516	6	-0.000123223	41	0.0000000E+000	6.00418e-07
2	1	0	1	0	0	1186.6	1.10016	1.10053	0.000528303	6	-0.000122955	41	0.0000000E+000	5.81412e-07
2	1	0	1	0	0	1187.1	1.10016	1.10025	0.000532024	6	-0.000122692	41	0.0000000E+000	5.85358e-07
2	0	0	1	0	0	1187.6	1.10016	1.1003	0.000509755	6	-0.000122429	41	0.0000000E+000	5.60882e-07
2	1	0	0	0	0	1188	1.10016	1.10069	0.000612932	6	-0.000122225	41	0.0000000E+000	6.74649e-07
2	0	0	1	0	0	1191.01	1.04002	1.04022	-0.000833967	6	-0.000123894	41	0.0000000E+000	-8.67506e-07
2	0	0	1	0	0	1194.34	0.973389	0.973602	-0.00197375	6	-0.000128865	41	0.0000000E+000	-1.92165e-06
2	0	0	1	0	0	1197.67	0.906757	0.906996	-0.003671	6	-0.000138501	41	0.0000000E+000	-3.32958e-06
2	0	0	1	0	0	1201	0.840125	0.840403	-0.00551355	6	-0.000154388	41	0.0000000E+000	-4.6336e-06
2	0	0	1	0	0	1204.33	0.773494	0.773669	-0.00435032	6	-0.000172559	41	0.0000000E+000	-3.3657e-06
2	0	0	1	0	0	1207.67	0.706862	0.707001	-0.00184041	6	-0.000182624	41	0.0000000E+000	-1.30117e-06
2	0	0	1	0	0	1211	0.640229	0.640417	-0.00101842	6	-0.000187543	41	0.0000000E+000	-6.52214e-07
2	0	0	0	0	0	1214.33	0.573596	0.573825	-0.000767548	6	-0.000190842	41	0.0000000E+000	-4.40438e-07
2	0	0	0	0	0	1217.66	0.506964	0.507174	-0.000706242	6	-0.00019367	41	0.0000000E+000	-3.58188e-07
2	0	0	0	0	0	1220.99	0.440332	0.440517	-0.00071408	6	-0.000196417	41	0.0000000E+000	-3.14564e-07
2	0	0	0	0	0	1224.32	0.3737	0.373848	-0.000986431	6	-0.000199502	41	0.0000000E+000	-3.68775e-07
2	1	0	0	0	0	1227.66	0.307068	0.307162	-0.00278895	6	-0.000205269	41	0.0000000E+000	-8.56659e-07
2	1	0	0	0	0	1230.99	0.240436	0.24045	-0.00449684	6	-0.000218944	41	0.0000000E+000	-1.08127e-06
2	1	0	0	0	0	1234.32	0.173804	0.173851	-0.00434116	6	-0.000232678	41	0.0000000E+000	-7.54714e-07
2	0	0	0	0	0	1237.65	0.107172	0.107278	-0.00787314	6	-0.000253373	41	0.0000000E+000	-8.44613e-07
2	0	0	0	0	0	1240.98	0.0405402	0.0406204	-0.0163911	6	-0.000283424	41	0.0000000E+000	-6.65812e-07
2	1	0	0	0	1	1244.09	0.0218831	0.0220512	0.0775573	6	-0.000444235	41	0.0000000E+000	1.71024e-06
2	1	0	0	0	1	1247.42	0.0885149	0.0886969	0.00953723	6	-0.000345732	41	0.0000000E+000	8.45923e-07
2	0	0	0	0	1	1250.76	0.155147	0.155404	0.00499817	6	-0.000322662	41	0.0000000E+000	7.76734e-07
2	0	0	0	0	1	1254.09	0.221779	0.222044	0.00396906	6	-0.000308562	41	0.0000000E+000	8.81307e-07
2	0	0	0	0	1	1257.42	0.288411	0.288594	0.00399144	6	-0.000295667	41	0.0000000E+000	1.1519e-06
2	1	0	0	0	1	1260.75	0.355043	0.35528	0.00129013	6	-0.000286004	41	0.0000000E+000	4.58359e-07
2	1	0	0	0	1	1264.08	0.421675	0.421901	0.000508887	6	-0.000283028	41	0.0000000E+000	2.147e-07
2	1	0	0	0	1	1267.41	0.488307	0.488604	0.000468147	6	-0.000281065	41	0.0000000E+000	2.28738e-07
2	1	0	0	0	1	1270.74	0.55494	0.555189	0.000507033	6	-0.000279043	41	0.0000000E+000	2.81499e-07
2	1	0	0	0	1	1274.08	0.621572	0.621717	0.000626631	6	-0.0002768	41	0.0000000E+000	3.89588e-07
2	0	0	0	0	1	1277.41	0.688204	0.688454	0.00086984	6	-0.000273912	41	0.0000000E+000	5.98845e-07
2	1	0	0	0	1	1280.74	0.754836	0.755159	0.00101529	6	-0.000270336	41	0.0000000E+000	7.66704e-07
2	1	0	0	0	1	1284.07	0.821468	0.821679	0.00197399	6	-0.000265519	41	0.0000000E+000	1.62199e-06
2	1	0	0	0	1	1287.4	0.8881	0.888277	0.00383635	6	-0.000254981	41	0.0000000E+000	3.40775e-06
2	1	0	0	0	1	1290.73	0.954732	0.954838	0.0043255	6	-0.00024082	41	0.0000000E+000	4.13016e-06
2	1	0	0	0	1	1292.85	0.997044	0.997222	0.00439465	7	-0.000231378	41	0.0000000E+000	4.38244e-06
2	1	0	0	0	1	1296.18	1.06368	1.06399	0.00469623	7	-0.000215926	41	0.0000000E+000	4.99676e-06
2	1	0	0	0	1	1298.19	1.10016	1.10125	0.00381738	7	-0.000206248	41	0.0000000E+000	4.20388e-06
2	1	0	0	0	1	1298.69	1.10016	1.09974	0.00287597	7	-0.000204652	41	0.0000000E+000	3.16283e-06
2	1	0	0	0	1	1299.19	1.10016	1.10044	0.00239246	7	-0.000203363	41	0.0000000E+000	2.63277e-06
2	1	0	0	0	1	1299.69	1.10016	1.10021	0.00207606	7	-0.000202267	41	0.0000000E+000	2.28411e-06
2	1	0	0	0	1	1300.19	1.10016	1.10041	0.00184283	7	-0.000201302	41	0.0000000E+000	2.02787e-06
2	1	0	0	0	1	1300.69	1.10016	1.10049	0.00167558	7	-0.000200433	41	0.0000000E+000	1.84397e-06
2	1	0	0	0	1	1301.19	1.10016	1.1008	0.00152742	7	-0.000199641	41	0.0000000E+000	1.68138e-06
2	1	0	0	0	1	1301.69	1.10016	1.10093	0.00142444	7	-0.000198911	41	0.0000000E+000	1.56821e-06
2	1	0	0	0	1	1302.19	1.10016	1.1009	0.00131408	7	-0.000198233	41	0.0000000E+000	1.44667e-06
2	1	0	0	0	1	1302.69	1.10016	1.1008	0.00125643	7	-0.000197596	41	0.0000000E+000	1.38307e-06
2	1	0	0	0	1	1303.19	1.10016	1.10032	0.00116903	7	-0.000196996	41	0.0000000E+000	1.28631e-06
2	1	0	0	0	1	1303.69	1.10016	1.10071	0.00110337	7	-0.000196432	41	0.0000000E+000	1.21448e-06
2	1	0	0	0	1	1304.19	1.10016	1.10044	0.0010626	7	-0.000195892	41	0.0000000E+000	1.16933e-06
2	1	0	0	0	1	1304.69	1.10016	1.10024	0.00100922	7	-0.000195379	41	0.0000000E+000	1.11039e-06
2	1	0	0	0	1	1305.19	1.10016	1.10026	0.000974234	7	-0.000194889	41	0.0000000E+000	1.07191e-06
2	1	0	0	0	1	1305.69	1.10016	1.10083	0.000918433	7	-0.000194417	41	0.0000000E+000	1.01104e-06
2	1	0	0	0	1	1306.19	1.10016	1.10022	0.00090206	7	-0.00019396	41	0.0000000E+000	9.92466e-07
2	1	0	0	0	1	1306.69	1.10016	1.10051	0.000863442	7	-0.000193523	41	0.0000000E+000	9.50228e-07
2	1	0	0	0	1	1307.19	1.10016	1.10053	0.000825263	7	-0.000193101	41	0.0000000E+000	9.08225e-07
2	1	0	0	0	1	1307.69	1.10016	1.10042	0.00080211	7	-0.000192694	41	0.0000000E+000	8.82661e-07
2	1	0	0	0	1	1308.19	1.10016	1.10103	0.000774484	7	-0.000192298	41	0.0000000E+000	8.52732e-07
2	1	0	0	0	1	1308.69	1.10016	1.10031	0.00075904	7	-0.000191917	41	0.0000000E+000	8.35176e-07
2	1	0	0	0	1	1309.19	1.10016	1.10032	0.000737022	7	-0.000191545	41	0.0000000E+000	8.10964e-07
2	1	0	0	0	1	1309.69	1.10016	1.10042	0.00072245	7	-0.000191184	41	0.0000000E+000	7.94996e-07
2	1	0	0	0	1	1310.19	1.10016	1.10075	0.000682324	7	-0.000190836	41	0.0000000E+000	7.51068e-07
2	1	0	0	0	1	1310.69	1.10016	1.09988	0.000692092	7	-0.000190491	41	0.0000000E+000	7.61217e-07
2	1	0	0	0	1	1311.19	1.10016	1.10026	0.0006584	7	-0.000190157	41	0.0000000E+000	7.24411e-07
2	1	0	0	0	1	1311.69	1.10016	1.10033	0.000645434	7	-0.000189831	41	0.0000000E+000	7.10192e-07
2	1	0	0	0	1	1312.19	1.10016	1.10044	0.000635518	7	-0.000189511	41	0.0000000E+000	6.99347e-07
2	1	0	0	0	1	1312.69	1.10016	1.10025	0.00061318	7	-0.0001892	41	0.0000000E+000	6.74653e-07
2	1	0	0	0	1	1313.19	1.10016	1.10056	0.000600284	7	-0.000188898	41	0.0000000E+000	6.60648e-07
2	1	0	0	0	1	1313.69	1.10016	1.10023	0.000590257	7	-0.000188601	41	0.0000000E+000	6.4942e-07
2	1	0	0	0	1	1314.19	1.10016	1.10145	0.000572923	7	-0.000188309	41	0.0000000E+000	6.31048e-07
2	1	0	0	0	1	1314.69	1.10016	1.09998	0.000568743	7	-0.000188023	41	0.0000000E+000	6.25606e-07
2	1	0	0	0	1	1315.19	1.10016	1.10037	0.000547103	7	-0.000187742	41	0.0000000E+000	6.02018e-07
2	1	0	0	0	1	1315.69	1.10016	1.10051	0.000546061	7	-0.000187469	41	0.0000000E+000	6.00947e-07
2	1	0	0	0	1	1316.19	1.10016	1.10054	0.000530378	7	-0.000187198	41	0.0000000E+000	5.83701e-07
2	1	0	0	0	1	1316.69	1.10016	1.10039	0.000512433	7	-0.000186936	41	0.0000000E+000	5.63878e-07
2	1	0	0	0	1	1317.19	1.10016	1.10015	0.000512128	7	-0.000186676	41	0.0000000E+000	5.63419e-07
2	1	0	0	0	1	1317.69	1.10016	1.10081	0.000500293	7	-0.00018642	41	0.0000000E+000	5.50725e-07
2	1	0	0	0	1	1318.33	1.09333	1.09357	-9.13495e-05	7	-0.000186341	41	0.0000000E+000	-9.98972e-08
2	0	0	0	0	1	1321.66	1.0267	1.02694	-0.00103683	7	-0.000188668	41	0.0000000E+000	-1.06476e-06
2	0	0	0	0	1	1324.99	0.960063	0.960256	-0.00226915	7	-0.000194452	41	0.0000000E+000	-2.17897e-06
2	0	0	0	0	1	1328.33	0.893431	0.893616	-0.00408953	7	-0.000205297	41	0.0000000E+000	-3.65447e-06
2	0	0	0	0	1	1331.66	0.826799	0.827006	-0.00570013	7	-0.000222381	41	0.0000000E+000	-4.71404e-06
2	0	0	0	0	1	1334.99	0.760167	0.760393	-0.00369848	7	-0.000239545	41	0.0000000E+000	-2.8123e-06
2	0	0	0	0	1	1338.32	0.693536	0.693602	-0.00160515	7	-0.000248129	41	0.0000000E+000	-1.11333e-06
2	0	0	0	0	1	1341.65	0.626904	0.626961	-0.000943397	7	-0.00025258	41	0.0000000E+000	-5.91473e-07
2	0	0	0	0	1	1344.98	0.560272	0.56053	-0.000747039	7	-0.000255739	41	0.0000000E+000	-4.18738e-07
2	0	0	0	0	1	1348.32	0.49364	0.493715	-0.000702053	7	-0.00025853	41	0.0000000E+000	-3.46615e-07
2	0	0	0	0	1	1351.65	0.427006	0.427278	-0.000729654	7	-0.000261276	41	0.0000000E+000	-3.11765e-07
2	0	0	0	0	1	1354.98	0.360374	0.360558	-0.00112983	7	-0.000264571	41	0.0000000E+000	-4.07369e-07
2	1	0	0	0	1	1358.31	0.293742	0.293736	-0.00356325	7	-0.000271692	41	0.0000000E+000	-1.04665e-06
2	1	0	0	0	1	1361.64	0.22711	0.227152	-0.00423716	7	-0.000286204	41	0.0000000E+000	-9.62478e-07
2	1	0	0	0	1	1364.97	0.160478	0.160545	-0.00484311	7	-0.000300068	41	0.0000000E+000	-7.77536e-07
2	0	0	0	0	1	1368.31	0.0938461	0.0940959	-0.00751801	7	-0.000322813	41	0.0000000E+000	-7.07414e-07
2	0	0	0	0	1	1371.64	0.0272141	0.0272631	-0.0387886	7	-0.000366118	41	0.0000000E+000	-1.0575e-06
2	1	0	1	0	0	1374.75	0.0352109	0.0354846	0.045929	7	-0.00046683	41	0.0000000E+000	1.62977e-06
2	1	0	1	0	0	1378.08	0.101843	0.10213	0.00789905	7	-0.000403647	41	0.0000000E+000	8.06728e-07
2	0	0	1	0	0	1381.41	0.168475	0.168793	0.00437375	7	-0.000383498	41	0.0000000E+000	7.38258e-07
2	0	0	1	0	0	1384.74	0.235107	0.235282	0.00373859	7	-0.000370052	41	0.0000000E+000	8.79621e-07
2	0	0	1	0	0	1388.07	0.301739	0.301966	0.00384636	7	-0.000357109	41	0.0000000E+000	1.16147e-06
2	1	0	1	0	0	1391.41	0.368371	0.368578	0.000974052	7	-0.000349249	41	0.0000000E+000	3.59014e-07
2	1	0	1	0	0	1394.74	0.435003	0.435315	0.000466914	7	-0.000346722	41	0.0000000E+000	2.03254e-07
2	1	0	1	0	0	1398.07	0.501634	0.501849	0.000467403	7	-0.000344799	41	0.0000000E+000	2.34566e-07
2	1	0	1	0	0	1401.4	0.568266	0.568454	0.000512012	7	-0.000342771	41	0.0000000E+000	2.91056e-07
2	1	0	1	0	0	1404.73	0.634898	0.63508	0.000664206	7	-0.000340462	41	0.0000000E+000	4.21824e-07
2	1	0	1	0	0	1408.06	0.70153	0.701706	0.000900153	7	-0.000337441	41	0.0000000E+000	6.31643e-07
2	1	0	1	0	0	1411.39	0.768162	0.768454	0.00105298	7	-0.000333781	41	0.0000000E+000	8.09167e-07
2	1	0	1	0	0	1414.73	0.834794	0.834985	0.00242416	7	-0.000328215	41	0.0000000E+000	2.02414e-06
2	1	0	0	0	0	1416.87	0.875608	0.875953	0.00236587	7	-0.000321428	41	0.0000000E+000	2.07239e-06
2	1	0	0	0	0	1417.37	0.875608	0.876534	0.00141661	7	-0.000320591	41	0.0000000E+000	1.24171e-06
2	1	0	0	0	0	1417.87	0.875608	0.874838	0.00110084	7	-0.000319992	41	0.0000000E+000	9.63053e-07
2	1	0	0	0	0	1418.37	0.875608	0.876034	0.000904609	7	-0.000319505	41	0.0000000E+000	7.92468e-07
2	1	0	0	0	0	1418.87	0.875608	0.875686	0.000767089	7	-0.000319097	41	0.0000000E+000	6.71729e-07
2	1	0	0	0	0	1419.37	0.875608	0.876824	0.000693155	7	-0.000318736	41	0.0000000E+000	6.07776e-07
2	1	0	0	0	0	1419.87	0.875608	0.876175	0.000610709	7	-0.000318417	41	0.0000000E+000	5.35088e-07
2	1	0	0	0	0	1420.37	0.875608	0.875774	0.000572012	7	-0.000318127	41	0.0000000E+000	5.00953e-07
2	1	0	0	0	0	1420.87	0.875608	0.87543	0.000511518	7	-0.000317863	41	0.0000000E+000	4.47798e-07
2	1	0	0	0	0	1421.37	0.875608	0.875781	0.000478718	7	-0.000317615	41	0.0000000E+000	4.19252e-07
2	1	0	0	0	0	1421.87	0.875608	0.875571	0.000448858	7	-0.000317385	41	0.0000000E+000	3.93007e-07
2	1	0	0	0	0	1422.37	0.875608	0.876332	0.000417988	7	-0.000317172	41	0.0000000E+000	3.66296e-07
2	1	0	0	0	0	1422.87	0.875608	0.875648	0.000394044	7	-0.000316972	41	0.0000000E+000	3.45044e-07
2	1	0	0	0	0	1423.37	0.875608	0.876026	0.000369278	7	-0.000316784	41	0.0000000E+000	3.23497e-07
2	1	0	0	0	0	1423.87	0.875608	0.875797	0.000349987	7	-0.000316606	41	0.0000000E+000	3.06518e-07
2	0	0	0	0	0	1424.37	0.875608	0.875743	0.000336958	7	-0.000316439	41	0.0000000E+000	2.95089e-07
2	1	0	0	0	0	1424.87	0.875608	0.8758	0.00031637	7	-0.000316279	41	0.0000000E+000	2.77077e-07
2	1	0	0	0	0	1425.37	0.875608	0.875835	0.000303467	7	-0.000316126	41	0.0000000E+000	2.65787e-07
2	1	0	0	0	0	1425.87	0.875608	0.876133	0.000293944	7	-0.000315978	41	0.0000000E+000	2.57534e-07
2	1	0	0	0	0	1426.37	0.875608	0.875564	0.000276221	7	-0.000315836	41	0.0000000E+000	2.41849e-07
2	0	0	0	0	0	1426.77	0.875608	0.876381	0.000275604	7	-0.000315727	41	0.0000000E+000	2.41534e-07