File: zilien_version_2/2022-09-19 11_29_04 test-2/2022-09-19 11_29_04 test-22_01_01_CV_C01.mpt
EC-Lab ASCII FILE
Nb header lines : 63

Cyclic Voltammetry

Run on channel : 1 (SN 15565)
User :
Electrode connection : standard
Potential control : Ewe
Ewe ctrl range : min = -10,00 V, max = 10,00 V
Ewe,I filtering : <None>
Safety Limits :
	Do not start on E overload
Channel : Grounded
Acquisition started on : 09/19/2022 11:29:15.126
Technique started on : 09/19/2022 11:29:15.126
Loaded Setting File :  NONE
Saved on :
	File : 2022-09-19 11_29_04 test-22_01_01_CV_C01.mpr
	Directory : C:\Users\Spectro\Spectro Inlets Dropbox\08 Development\Data\eclab-integration\2022-09-19 11_29_04 test-22\
	Host : 192.168.56.1
Device : SP-300 (SN 1920)
Address : USB
EC-Lab for windows v11.43 (software)
Internet server v11.40 (firmware)
Command interpretor v11.43 (firmware)
Electrode material :
Initial state :
Electrolyte :
Comments :
Cable : standard
Electrode surface area : 0,001 cm²
Characteristic mass : 0,001 g
Equivalent Weight : 0,000 g/eq.
Density : 0,000 g/cm3
Volume (V) : 0,001 cm³
Text export
   Mode : Standard
   Time format : Elapsed
Cycle Definition : Charge/Discharge alternance
Ei (V)              0,000
vs.                 Eoc
dE/dt               500,000
dE/dt unit          mV/s
E1 (V)              1,000
vs.                 Ref
Step percent        50
N                   10
E range min (V)     -10,000
E range max (V)     10,000
I Range             Auto
I Range min         Unset
I Range max         Unset
I Range init        Unset
Bandwidth           8
E2 (V)              -1,000
vs.                 Ref
nc cycles           0
Reverse Scan        1
Ef (V)              0,000
vs.                 Eoc

mode	ox/red	error	control changes	counter inc.	time/s	control/V	Ewe/V	<I>/mA	cycle number	(Q-Qo)/C	I Range	P/W
2	1	0	1	0	0,000000000000000E+000	4,4586502E-002	4,4815823E-002	9,413445368409157E-003	1,000000000000000E+000	0,0000000E+000	42	4,2187131E-007
2	1	0	1	0	5,359999864595011E-002	7,1372718E-002	7,1658172E-002	1,471282149820277E-002	1,000000000000000E+000	6,0682555E-007	41	1,0542939E-006
2	1	0	1	0	8,039999796892516E-002	8,4765814E-002	8,5041262E-002	1,736026797443629E-002	1,000000000000000E+000	1,0386791E-006	41	1,4763391E-006
2	1	0	1	0	1,069999972969526E-001	9,8058984E-002	9,8316737E-002	1,998486396696536E-002	1,000000000000000E+000	1,5373816E-006	41	1,9648467E-006
2	1	0	1	0	1,335999966249801E-001	1,1135215E-001	1,1158548E-001	2,261798917509933E-002	1,000000000000000E+000	2,1059814E-006	41	2,5238392E-006
2	1	0	1	0	1,603999959479552E-001	1,2474526E-001	1,2497341E-001	2,525816852794379E-002	1,000000000000000E+000	2,7495309E-006	41	3,1565994E-006
2	1	0	1	0	1,869999952759827E-001	1,3807175E-001	1,3837455E-001	2,790134615982737E-002	1,000000000000000E+000	3,4587106E-006	41	3,8608364E-006
2	1	0	1	0	2,135999946040101E-001	1,5136491E-001	1,5165505E-001	3,052764435706196E-002	1,000000000000000E+000	4,2378369E-006	41	4,6296714E-006
2	1	0	1	0	2,401999939320376E-001	1,6465805E-001	1,6492729E-001	3,315307514955440E-002	1,000000000000000E+000	5,0868039E-006	41	5,4678467E-006
2	1	0	1	0	2,669999932550127E-001	1,7805117E-001	1,7834114E-001	3,580079303113365E-002	1,000000000000000E+000	6,0128118E-006	41	6,3847542E-006
2	1	0	1	0	2,935999925830401E-001	1,9134434E-001	1,9159709E-001	3,842299547541206E-002	1,000000000000000E+000	7,0020747E-006	41	7,3617339E-006
2	1	0	1	0	3,201999919110676E-001	2,0467080E-001	2,0494415E-001	4,106155003003858E-002	1,000000000000000E+000	8,0614391E-006	41	8,4153244E-006
2	1	0	1	0	3,467999912390951E-001	2,1796399E-001	2,1827213E-001	4,369378416595285E-002	1,000000000000000E+000	9,1906977E-006	41	9,5371352E-006
2	1	0	1	0	3,735999905620702E-001	2,3135711E-001	2,3165452E-001	4,633869226915222E-002	1,000000000000000E+000	1,0399247E-005	41	1,0734568E-005
2	1	0	1	0	4,001999898900976E-001	2,4465026E-001	2,4493732E-001	4,896509081445410E-002	1,000000000000000E+000	1,1668910E-005	41	1,1993377E-005
2	1	0	1	0	4,267999892181251E-001	2,5795451E-001	2,5824809E-001	5,159366704077328E-002	1,000000000000000E+000	1,3008370E-005	41	1,3323966E-005
2	1	0	1	0	4,533999885461526E-001	2,7126986E-001	2,7153268E-001	5,422576621155428E-002	1,000000000000000E+000	1,4417886E-005	41	1,4724068E-005
2	1	0	1	0	4,801999878691277E-001	2,8466299E-001	2,8488997E-001	5,686724307403590E-002	1,000000000000000E+000	1,5908638E-005	41	1,6200907E-005
2	1	0	1	0	5,067999871971551E-001	2,9795617E-001	2,9820511E-001	5,949406248206907E-002	1,000000000000000E+000	1,7458349E-005	41	1,7741433E-005
2	1	0	1	0	5,333999865251826E-001	3,1124935E-001	3,1156760E-001	6,213080719947683E-002	1,000000000000000E+000	1,9078167E-005	41	1,9357947E-005
2	1	0	1	0	5,600999858506839E-001	3,2462060E-001	3,2493213E-001	6,478641161410129E-002	1,000000000000000E+000	2,0774334E-005	41	2,1051186E-005
2	1	0	1	0	5,867999851761851E-001	3,3796892E-001	3,3823237E-001	6,740759246264744E-002	1,000000000000000E+000	2,2541084E-005	41	2,2799430E-005
2	1	0	1	0	6,133999845042126E-001	3,5126209E-001	3,5155204E-001	7,004181411078558E-002	1,000000000000000E+000	2,4371264E-005	41	2,4623343E-005
2	1	0	1	0	6,399999838322401E-001	3,6455521E-001	3,6482176E-001	7,267255944510287E-002	1,000000000000000E+000	2,6271337E-005	41	2,6512531E-005
2	1	0	1	0	6,667999831552152E-001	3,7794834E-001	3,7821123E-001	7,531417132025439E-002	1,000000000000000E+000	2,8256374E-005	41	2,8484665E-005
2	1	0	1	0	6,933999824832426E-001	3,9127481E-001	3,9155954E-001	7,795656614180213E-002	1,000000000000000E+000	3,0296887E-005	41	3,0524636E-005
2	1	0	1	0	7,199999818112701E-001	4,0456805E-001	4,0486506E-001	8,058491335347460E-002	1,000000000000000E+000	3,2407472E-005	41	3,2626016E-005
2	1	0	1	0	7,465999811392976E-001	4,1786116E-001	4,1813728E-001	8,320859944215053E-002	1,000000000000000E+000	3,4587949E-005	41	3,4792618E-005
2	1	0	1	0	7,733999804622727E-001	4,3125427E-001	4,3152037E-001	8,585378383383335E-002	1,000000000000000E+000	3,6855436E-005	41	3,7047655E-005
2	1	0	1	0	7,999999797903001E-001	4,4454738E-001	4,4480246E-001	8,848086170813418E-002	1,000000000000000E+000	3,9176095E-005	41	3,9356506E-005
2	1	0	1	0	8,265999791183276E-001	4,5787391E-001	4,5811954E-001	9,111253637432415E-002	1,000000000000000E+000	4,1566720E-005	41	4,1740434E-005
2	1	0	1	0	8,531999784463551E-001	4,7116706E-001	4,7141570E-001	9,374394215216580E-002	1,000000000000000E+000	4,4027292E-005	41	4,4192366E-005
2	1	0	1	0	8,799999777693301E-001	4,8456019E-001	4,8484129E-001	9,639570409587317E-002	1,000000000000000E+000	4,6577250E-005	41	4,6736619E-005
2	1	0	1	0	9,065999770973576E-001	4,9785334E-001	4,9812660E-001	9,901608853930766E-002	1,000000000000000E+000	4,9178223E-005	41	4,9322549E-005
2	1	0	1	0	9,331999764253851E-001	5,1114655E-001	5,1141012E-001	1,016405967850007E-001	1,000000000000000E+000	5,1849063E-005	41	5,1980031E-005
2	1	0	1	0	9,597999757534126E-001	5,2447295E-001	5,2474427E-001	1,042782938398887E-001	1,000000000000000E+000	5,4589986E-005	41	5,4719436E-005
2	1	0	1	0	9,865999750763876E-001	5,3786606E-001	5,3810710E-001	1,069244012605247E-001	1,000000000000000E+000	5,7422207E-005	41	5,7536778E-005
2	1	0	1	0	1,013199974404415E+000	5,5115926E-001	5,5139315E-001	1,095466206723359E-001	1,000000000000000E+000	6,0303431E-005	41	6,0403258E-005
2	1	0	1	0	1,069799972974579E+000	5,7944477E-001	5,7970738E-001	1,152396382395331E-001	1,000000000000000E+000	6,6627035E-005	40	6,6805267E-005
2	1	0	1	0	1,096399972302606E+000	5,9277123E-001	5,9305280E-001	1,178602455106255E-001	1,000000000000000E+000	6,9729533E-005	40	6,9897353E-005
2	1	0	1	0	1,123199971625581E+000	6,0616434E-001	6,0644370E-001	1,205222858484678E-001	1,000000000000000E+000	7,2926152E-005	40	7,3089985E-005
2	1	0	1	0	1,149799970953609E+000	6,1945754E-001	6,1966395E-001	1,231418390118053E-001	1,000000000000000E+000	7,6169097E-005	40	7,6306562E-005
2	1	0	1	0	1,176399970281636E+000	6,3275063E-001	6,3299638E-001	1,257542621926402E-001	1,000000000000000E+000	7,9481550E-005	40	7,9601996E-005
2	1	0	1	0	1,203099969607138E+000	6,4609891E-001	6,4640218E-001	1,284379669473157E-001	1,000000000000000E+000	8,2876912E-005	40	8,3022584E-005
2	1	0	1	0	1,229799968932639E+000	6,5947020E-001	6,5970010E-001	1,310871137053864E-001	1,000000000000000E+000	8,6343396E-005	40	8,6478183E-005
2	1	0	1	0	1,256399968260666E+000	6,7276335E-001	6,7301351E-001	1,336657214909796E-001	1,000000000000000E+000	8,9866713E-005	40	8,9958834E-005
2	1	0	1	0	1,282999967588694E+000	6,8605661E-001	6,8632263E-001	1,363181762397291E-001	1,000000000000000E+000	9,3459814E-005	40	9,3558250E-005
2	1	0	1	0	1,309799966911669E+000	6,9944966E-001	6,9970572E-001	1,389661150091950E-001	1,000000000000000E+000	9,7150965E-005	40	9,7235388E-005
2	1	0	1	0	1,336399966239696E+000	7,1276504E-001	7,1304363E-001	1,416031403796904E-001	1,000000000000000E+000	1,0088467E-004	40	1,0096922E-004
2	1	0	1	0	1,362999965567724E+000	7,2606921E-001	7,2632962E-001	1,442245982005269E-001	1,000000000000000E+000	1,0468840E-004	40	1,0475460E-004
2	1	0	1	0	1,389599964895751E+000	7,3936248E-001	7,3963815E-001	1,468426543559564E-001	1,000000000000000E+000	1,0856215E-004	40	1,0861043E-004
2	1	0	1	0	1,416399964218726E+000	7,5275552E-001	7,5302720E-001	1,494923578982714E-001	1,000000000000000E+000	1,1253540E-004	40	1,1257181E-004
2	1	0	1	0	1,442999963546754E+000	7,6604873E-001	7,6636595E-001	1,521089531558881E-001	1,000000000000000E+000	1,1654921E-004	40	1,1657112E-004
2	1	0	1	0	1,469599962874781E+000	7,7937520E-001	7,7963573E-001	1,547458778775762E-001	1,000000000000000E+000	1,2063285E-004	40	1,2064542E-004
2	1	0	1	0	1,496199962202809E+000	7,9266834E-001	7,9296410E-001	1,574056916307509E-001	1,000000000000000E+000	1,2478641E-004	40	1,2481706E-004
2	1	0	1	0	1,522999961525784E+000	8,0606145E-001	8,0631882E-001	1,600289017912775E-001	1,000000000000000E+000	1,2904199E-004	40	1,2903432E-004
2	1	0	1	0	1,549599960853811E+000	8,1935465E-001	8,1964284E-001	1,626687334229551E-001	1,000000000000000E+000	1,3333585E-004	40	1,3333026E-004
2	1	0	1	0	1,576199960181839E+000	8,3264768E-001	8,3290356E-001	1,652693103998901E-001	1,000000000000000E+000	1,3769974E-004	40	1,3765339E-004
2	1	0	1	0	1,602799959509866E+000	8,4597433E-001	8,4621489E-001	1,678968556011875E-001	1,000000000000000E+000	1,4213353E-004	40	1,4207682E-004
2	1	0	1	0	1,629599958832841E+000	8,5936737E-001	8,5964161E-001	1,705728710279799E-001	1,000000000000000E+000	1,4667165E-004	40	1,4663154E-004
2	1	0	1	0	1,656199958160869E+000	8,7266052E-001	8,7292606E-001	1,732087788404897E-001	1,000000000000000E+000	1,5124593E-004	40	1,5119846E-004
2	1	0	1	0	1,682799957488896E+000	8,8595366E-001	8,8620538E-001	1,758290640718774E-001	1,000000000000000E+000	1,5589030E-004	40	1,5582066E-004
2	1	0	1	0	1,709599956811871E+000	8,9934677E-001	8,9962685E-001	1,784818313724826E-001	1,000000000000000E+000	1,6064034E-004	40	1,6056705E-004
2	1	0	1	0	1,736199956139899E+000	9,1267329E-001	9,1296285E-001	1,811370625374065E-001	1,000000000000000E+000	1,6542531E-004	40	1,6537141E-004
2	1	0	1	0	1,762799955467926E+000	9,2596656E-001	9,2620218E-001	1,837327878262540E-001	1,000000000000000E+000	1,7027992E-004	40	1,7017371E-004
2	1	0	1	0	1,789399954795954E+000	9,3925971E-001	9,3952096E-001	1,863458824867843E-001	1,000000000000000E+000	1,7520419E-004	40	1,7507587E-004
2	1	0	1	0	1,816199954118929E+000	9,5265281E-001	9,5288301E-001	1,889956671608770E-001	1,000000000000000E+000	1,8023601E-004	40	1,8009076E-004
2	1	0	1	0	1,842799953446956E+000	9,6594590E-001	9,6616328E-001	1,916232744348241E-001	1,000000000000000E+000	1,8530060E-004	40	1,8513938E-004
2	1	0	1	0	1,869399952774984E+000	9,7927237E-001	9,7946769E-001	1,942613106220968E-001	1,000000000000000E+000	1,9043518E-004	40	1,9027268E-004
2	1	0	1	0	1,895999952103011E+000	9,9256563E-001	9,9282175E-001	1,969056005356837E-001	1,000000000000000E+000	1,9563994E-004	40	1,9549216E-004
2	1	0	1	0	1,914599951633136E+000	9,9829590E-001	9,9859172E-001	1,973016579732461E-001	1,000000000000000E+000	1,9931568E-004	40	1,9702381E-004
2	1	0	1	0	1,941399950956111E+000	9,8490280E-001	9,8518711E-001	1,943151863835135E-001	1,000000000000000E+000	2,0455735E-004	40	1,9143682E-004
2	1	0	1	0	1,967999950284138E+000	9,7158748E-001	9,7180676E-001	1,916446834220554E-001	1,000000000000000E+000	2,0968835E-004	40	1,8624160E-004
2	1	0	1	0	1,994599949612166E+000	9,5828319E-001	9,5856935E-001	1,890447638133388E-001	1,000000000000000E+000	2,1474939E-004	40	1,8121251E-004
2	1	0	1	0	2,021199948940193E+000	9,4498998E-001	9,4525409E-001	1,864085363262955E-001	1,000000000000000E+000	2,1974069E-004	40	1,7620344E-004
2	1	0	1	0	2,047999948263168E+000	9,3159693E-001	9,3181890E-001	1,837764796820316E-001	1,000000000000000E+000	2,2469889E-004	40	1,7124640E-004
2	1	0	1	0	2,074599947591196E+000	9,1830379E-001	9,1858834E-001	1,811519553923671E-001	1,000000000000000E+000	2,2955006E-004	40	1,6640408E-004
2	1	0	1	0	2,101199946919223E+000	9,0497726E-001	9,0524924E-001	1,784903013613079E-001	1,000000000000000E+000	2,3433144E-004	40	1,6157821E-004
2	1	0	1	0	2,127799946247251E+000	8,9168417E-001	8,9190841E-001	1,758862494394027E-001	1,000000000000000E+000	2,3904259E-004	40	1,5687442E-004
2	1	0	1	0	2,154599945570226E+000	8,7829095E-001	8,7858385E-001	1,732200138717115E-001	1,000000000000000E+000	2,4371847E-004	40	1,5218831E-004
2	1	0	1	0	2,181199944898253E+000	8,6499780E-001	8,6523950E-001	1,706037727650265E-001	1,000000000000000E+000	2,4828929E-004	40	1,4761313E-004
2	1	0	1	0	2,207799944226281E+000	8,5170466E-001	8,5192513E-001	1,679561397972673E-001	1,000000000000000E+000	2,5279031E-004	40	1,4308606E-004
2	1	0	1	0	2,234399943554308E+000	8,3837819E-001	8,3864945E-001	1,653334053854149E-001	1,000000000000000E+000	2,5722111E-004	40	1,3865677E-004
2	1	0	1	0	2,261199942877283E+000	8,2498509E-001	8,2527775E-001	1,626960938544171E-001	1,000000000000000E+000	2,6161424E-004	40	1,3426946E-004
2	1	0	1	0	2,287799942205311E+000	8,1169194E-001	8,1192094E-001	1,600482455512978E-001	1,000000000000000E+000	2,6590479E-004	40	1,2994652E-004
2	1	0	1	0	2,314399941533338E+000	7,9839879E-001	7,9863453E-001	1,574164465729464E-001	1,000000000000000E+000	2,7012517E-004	40	1,2571822E-004
2	1	0	1	0	2,341199940856313E+000	7,8500569E-001	7,8526300E-001	1,547757795992459E-001	1,000000000000000E+000	2,7430669E-004	40	1,2153969E-004
2	1	0	1	0	2,367799940184341E+000	7,7167910E-001	7,7193403E-001	1,521520882844924E-001	1,000000000000000E+000	2,7838664E-004	40	1,1745137E-004
2	1	0	1	0	2,394399939512368E+000	7,5838608E-001	7,5867414E-001	1,495361429289912E-001	1,000000000000000E+000	2,8239677E-004	40	1,1344920E-004
2	1	0	1	0	2,420999938840396E+000	7,4509293E-001	7,4538791E-001	1,468955846833222E-001	1,000000000000000E+000	2,8633705E-004	40	1,0949419E-004
2	1	0	1	0	2,447799938163371E+000	7,3169976E-001	7,3201853E-001	1,442965535776848E-001	1,000000000000000E+000	2,9023649E-004	40	1,0562775E-004
2	1	0	1	0	2,474399937491398E+000	7,1840656E-001	7,1864545E-001	1,416174186141387E-001	1,000000000000000E+000	2,9403629E-004	40	1,0177271E-004
2	1	0	1	0	2,500999936819426E+000	7,0508009E-001	7,0533246E-001	1,390053142444230E-001	1,000000000000000E+000	2,9776653E-004	40	9,8044962E-005
2	1	0	1	0	2,527599936147453E+000	6,9178694E-001	6,9204563E-001	1,363752369283859E-001	1,000000000000000E+000	3,0142674E-004	40	9,4377887E-005
2	1	0	1	0	2,554399935470428E+000	6,7839384E-001	6,7863405E-001	1,337096257833770E-001	1,000000000000000E+000	3,0504350E-004	40	9,0739908E-005
2	1	0	1	0	2,580999934798456E+000	6,6510069E-001	6,6535532E-001	1,310894035171563E-001	1,000000000000000E+000	3,0856309E-004	40	8,7221029E-005
2	1	0	1	0	2,607599934126483E+000	6,5180749E-001	6,5204042E-001	1,284558758508270E-001	1,000000000000000E+000	3,1201300E-004	40	8,3758423E-005
2	1	0	1	0	2,634199933454511E+000	6,3848096E-001	6,3869816E-001	1,258089945302348E-001	1,000000000000000E+000	3,1539259E-004	40	8,0353973E-005
2	1	0	1	0	2,660999932777486E+000	6,2508792E-001	6,2533414E-001	1,231899859092666E-001	1,000000000000000E+000	3,1872658E-004	40	7,7034907E-005
2	1	0	1	0	2,687599932105513E+000	6,1179477E-001	6,1203808E-001	1,205275646721325E-001	1,000000000000000E+000	3,2196587E-004	40	7,3767456E-005
2	1	0	1	0	2,714199931433541E+000	5,9850162E-001	5,9872466E-001	1,179347367705001E-001	1,000000000000000E+000	3,2513522E-004	40	7,0610433E-005
2	1	0	1	0	2,740999930756516E+000	5,8510846E-001	5,8538860E-001	1,152558651073679E-001	1,000000000000000E+000	3,2825768E-004	40	6,7469467E-005
2	1	0	1	0	2,767599930084543E+000	5,7178199E-001	5,7205403E-001	1,126189067959786E-001	1,000000000000000E+000	3,3128640E-004	40	6,4424101E-005
2	1	0	1	0	2,794199929412571E+000	5,5848879E-001	5,5874962E-001	1,100103318361412E-001	1,000000000000000E+000	3,3424536E-004	40	6,1468229E-005
2	1	0	1	0	2,820799928740598E+000	5,4519570E-001	5,4542303E-001	1,073650377453310E-001	1,000000000000000E+000	3,3713426E-004	40	5,8559363E-005
2	1	0	1	0	2,847599928063573E+000	5,3180254E-001	5,3210104E-001	1,047223101020796E-001	1,000000000000000E+000	3,3997433E-004	40	5,5722849E-005
2	1	0	1	0	2,874199927391601E+000	5,1849830E-001	5,1875114E-001	1,021087391010952E-001	1,000000000000000E+000	3,4272313E-004	40	5,2969026E-005
2	1	0	1	0	2,900799926719628E+000	5,0518292E-001	5,0543898E-001	9,948205957383244E-002	1,000000000000000E+000	3,4540187E-004	40	5,0282109E-005
2	1	0	1	0	2,927399926047656E+000	4,9188974E-001	4,9218142E-001	9,686603804778660E-002	1,000000000000000E+000	3,4801080E-004	40	4,7675665E-005
2	1	0	1	0	2,954199925370631E+000	4,7849661E-001	4,7876549E-001	9,419887775923907E-002	1,000000000000000E+000	3,5056856E-004	40	4,5099172E-005
2	1	0	1	0	2,980799924698658E+000	4,6520346E-001	4,6544129E-001	9,154537160162979E-002	1,000000000000000E+000	3,5303706E-004	40	4,2608997E-005
2	1	0	1	0	3,007399924026686E+000	4,5187697E-001	4,5212901E-001	8,892826546410415E-002	1,000000000000000E+000	3,5543574E-004	40	4,0207047E-005
2	1	0	1	0	3,033999923354713E+000	4,3858382E-001	4,3884102E-001	8,627997362151915E-002	1,000000000000000E+000	3,5776393E-004	40	3,7863192E-005
2	1	0	1	0	3,060799922677688E+000	4,2519075E-001	4,2543855E-001	8,364787827110087E-002	1,000000000000000E+000	3,6003892E-004	40	3,5587032E-005
2	1	0	1	0	3,087399922005716E+000	4,1189754E-001	4,1220918E-001	8,104761476958311E-002	1,000000000000000E+000	3,6222703E-004	40	3,3408571E-005
2	1	0	1	0	3,113999921333743E+000	3,9860439E-001	3,9888808E-001	7,838496788269089E-002	1,000000000000000E+000	3,6434535E-004	40	3,1266831E-005
2	1	0	1	0	3,140599920661771E+000	3,8527787E-001	3,8551381E-001	7,574629226680085E-002	1,000000000000000E+000	3,6639345E-004	40	2,9201243E-005
2	1	0	1	0	3,167399919984746E+000	3,7188482E-001	3,7217179E-001	7,310044858992737E-002	1,000000000000000E+000	3,6838598E-004	40	2,7205924E-005
2	1	0	1	0	3,193999919312773E+000	3,5859168E-001	3,5887071E-001	7,048793085947802E-002	1,000000000000000E+000	3,7029391E-004	40	2,5296054E-005
2	1	0	1	0	3,220599918640801E+000	3,4529850E-001	3,4552738E-001	6,787133240238016E-002	1,000000000000000E+000	3,7213182E-004	40	2,3451405E-005
2	1	0	1	0	3,247399917963776E+000	3,3190536E-001	3,3217695E-001	6,520847231537735E-002	1,000000000000000E+000	3,7391266E-004	40	2,1660751E-005
2	1	0	1	0	3,273999917291803E+000	3,1857890E-001	3,1879917E-001	6,257631505529115E-002	1,000000000000000E+000	3,7561019E-004	40	1,9949277E-005
2	1	0	1	0	3,300599916619831E+000	3,0528572E-001	3,0552158E-001	5,997448720445397E-002	1,000000000000000E+000	3,7723777E-004	40	1,8323501E-005
2	1	0	1	0	3,327199915947858E+000	2,9199257E-001	2,9224333E-001	5,731174705336661E-002	1,000000000000000E+000	3,7879526E-004	40	1,6748976E-005
2	1	0	1	0	3,353999915270833E+000	2,7859947E-001	2,7881902E-001	5,465416650792324E-002	1,000000000000000E+000	3,8029387E-004	40	1,5238621E-005
2	1	0	1	0	3,380599914598861E+000	2,6530629E-001	2,6553982E-001	5,203569343721040E-002	1,000000000000000E+000	3,8171111E-004	40	1,3817549E-005
2	1	0	1	0	3,407199913926888E+000	2,5197980E-001	2,5224665E-001	4,943010977973861E-002	1,000000000000000E+000	3,8305845E-004	40	1,2468579E-005
2	1	0	1	0	3,433799913254916E+000	2,3868665E-001	2,3894680E-001	4,677876471638834E-002	1,000000000000000E+000	3,8433558E-004	40	1,1177636E-005
2	1	0	1	0	3,460599912577891E+000	2,2529353E-001	2,2554359E-001	4,414555869055531E-002	1,000000000000000E+000	3,8555163E-004	40	9,9567478E-006
2	1	0	1	0	3,487199911905918E+000	2,1200038E-001	2,1224533E-001	4,150099131463048E-002	1,000000000000000E+000	3,8668863E-004	40	8,8083916E-006
2	1	0	1	0	3,513799911233946E+000	1,9870724E-001	1,9896199E-001	3,886870592104968E-002	1,000000000000000E+000	3,8775540E-004	40	7,7333953E-006
2	1	0	1	0	3,540399910561973E+000	1,8538074E-001	1,8563744E-001	3,623257460179352E-002	1,000000000000000E+000	3,8875229E-004	40	6,7261226E-006
2	1	0	1	0	3,597199909127085E+000	1,5699534E-001	1,5723765E-001	3,054278066798971E-002	1,000000000000000E+000	3,9070423E-004	41	4,8024749E-006
2	1	0	1	0	3,623799908455112E+000	1,4370218E-001	1,4396836E-001	2,791405820801939E-002	1,000000000000000E+000	3,9147973E-004	41	4,0187410E-006
2	1	0	1	0	3,650399907783140E+000	1,3040902E-001	1,3064939E-001	2,527998242827992E-002	1,000000000000000E+000	3,9218529E-004	41	3,3028143E-006
2	1	0	1	0	3,676999907111167E+000	1,1708254E-001	1,1731595E-001	2,264701975970343E-002	1,000000000000000E+000	3,9282063E-004	41	2,6568566E-006
2	1	0	1	0	3,703799906434142E+000	1,0368943E-001	1,0394550E-001	2,000131866006999E-002	1,000000000000000E+000	3,9339013E-004	41	2,0790471E-006
2	1	0	1	0	3,730399905762170E+000	9,0396255E-002	9,0623491E-002	1,737944932344060E-002	1,000000000000000E+000	3,9388525E-004	41	1,5749864E-006
2	1	0	1	0	3,756999905090197E+000	7,7103101E-002	7,7369697E-002	1,475126807830143E-002	1,000000000000000E+000	3,9431051E-004	41	1,1413011E-006
2	1	0	1	0	3,783699904415698E+000	6,3743301E-002	6,3995674E-002	1,211345708286210E-002	1,000000000000000E+000	3,9466712E-004	41	7,7520883E-007
2	1	0	1	0	3,810399903741200E+000	5,0383508E-002	5,0659057E-002	9,474295821928547E-003	1,000000000000000E+000	3,9495309E-004	41	4,7995889E-007
2	1	0	1	0	3,836999903069227E+000	3,7090346E-002	3,7324283E-002	6,840878273336203E-003	1,000000000000000E+000	3,9516788E-004	41	2,5533089E-007
2	1	0	1	0	3,863599902397254E+000	2,3797181E-002	2,4051158E-002	4,212463658768699E-003	1,000000000000000E+000	3,9531285E-004	41	1,0131463E-007
2	1	0	1	0	3,890399901720230E+000	1,0404070E-002	1,0646193E-002	1,566833766476834E-003	1,000000000000000E+000	3,9538823E-004	41	1,6680815E-008
2	0	0	1	0	3,916999901048257E+000	-2,9224090E-003	-2,7131306E-003	-1,080282495240677E-003	1,000000000000000E+000	3,9539259E-004	41	2,9309475E-009
2	0	0	1	0	3,943599900376285E+000	-1,6215580E-002	-1,5953643E-002	-3,709372118404036E-003	1,000000000000000E+000	3,9532688E-004	41	5,9177999E-008
2	0	0	1	0	3,970199899704312E+000	-2,9508749E-002	-2,9300194E-002	-6,332533760663242E-003	1,000000000000000E+000	3,9519128E-004	41	1,8554447E-007
2	0	0	1	0	3,996999899027287E+000	-4,2901862E-002	-4,2704843E-002	-8,992273068724882E-003	1,000000000000000E+000	3,9498392E-004	41	3,8401362E-007
2	0	0	1	0	4,023599898355315E+000	-5,6195032E-002	-5,5941414E-002	-1,161452487576748E-002	1,000000000000000E+000	3,9470784E-004	41	6,4973295E-007
2	0	0	1	0	4,050199897683342E+000	-6,9521517E-002	-6,9333993E-002	-1,424792915374079E-002	1,000000000000000E+000	3,9436182E-004	41	9,8786586E-007
2	0	0	1	0	4,076799897011369E+000	-8,2814686E-002	-8,2635917E-002	-1,687123042744731E-002	1,000000000000000E+000	3,9394587E-004	41	1,3941695E-006
2	0	0	1	0	4,103599896334345E+000	-9,6207805E-002	-9,5973507E-002	-1,951765613533393E-002	1,000000000000000E+000	3,9345623E-004	41	1,8731779E-006
2	0	0	1	0	4,130199895662372E+000	-1,0950097E-001	-1,0925484E-001	-2,214231088437379E-002	1,000000000000000E+000	3,9290014E-004	41	2,4191545E-006
2	0	0	1	0	4,156799894990399E+000	-1,2279415E-001	-1,2256241E-001	-2,476626177255337E-002	1,000000000000000E+000	3,9227415E-004	41	3,0354126E-006
2	0	0	1	0	4,183399894318427E+000	-1,3612063E-001	-1,3590215E-001	-2,740883125613133E-002	1,000000000000000E+000	3,9157795E-004	41	3,7249192E-006
2	0	0	1	0	4,210199893641402E+000	-1,4951374E-001	-1,4930147E-001	-3,005777772923468E-002	1,000000000000000E+000	3,9080586E-004	41	4,4876706E-006
2	0	0	1	0	4,236799892969429E+000	-1,6280691E-001	-1,6259794E-001	-3,268343287102948E-002	1,000000000000000E+000	3,8996938E-004	41	5,3142589E-006
2	0	0	1	0	4,263399892297457E+000	-1,7610008E-001	-1,7586406E-001	-3,531465982717541E-002	1,000000000000000E+000	3,8906297E-004	41	6,2105792E-006
2	0	0	1	0	4,290199891620432E+000	-1,8949316E-001	-1,8929662E-001	-3,795676052977803E-002	1,000000000000000E+000	3,8807915E-004	41	7,1850864E-006
2	0	0	1	0	4,316799890948460E+000	-2,0281966E-001	-2,0257668E-001	-4,058481676523412E-002	1,000000000000000E+000	3,8703237E-004	41	8,2215374E-006
2	0	0	1	0	4,343399890276487E+000	-2,1611285E-001	-2,1587236E-001	-4,322241096573010E-002	1,000000000000000E+000	3,8591560E-004	41	9,3305243E-006
2	0	0	1	0	4,369999889604514E+000	-2,2940603E-001	-2,2919685E-001	-4,584717948115813E-002	1,000000000000000E+000	3,8472889E-004	41	1,0508029E-005
2	0	0	1	0	4,396799888927490E+000	-2,4279915E-001	-2,4260841E-001	-4,849465316462265E-002	1,000000000000000E+000	3,8346258E-004	41	1,1765211E-005
2	0	0	1	0	4,423399888255517E+000	-2,5609228E-001	-2,5583506E-001	-5,112108231211691E-002	1,000000000000000E+000	3,8213565E-004	41	1,3078565E-005
2	0	0	1	0	4,449999887583544E+000	-2,6941878E-001	-2,6916698E-001	-5,375424163454823E-002	1,000000000000000E+000	3,8073870E-004	41	1,4468867E-005
2	0	0	1	0	4,476599886911572E+000	-2,8271198E-001	-2,8248307E-001	-5,637504773815949E-002	1,000000000000000E+000	3,7927183E-004	41	1,5924996E-005
2	0	0	1	0	4,503399886234547E+000	-2,9610512E-001	-2,9584965E-001	-5,903707194859942E-002	1,000000000000000E+000	3,7772331E-004	41	1,7466096E-005
2	0	0	1	0	4,529999885562574E+000	-3,0939826E-001	-3,0915141E-001	-6,165931856667151E-002	1,000000000000000E+000	3,7611599E-004	41	1,9062065E-005
2	0	0	1	0	4,556599884890602E+000	-3,2269141E-001	-3,2248774E-001	-6,428535322775122E-002	1,000000000000000E+000	3,7443885E-004	41	2,0731239E-005
2	0	0	1	0	4,583199884218629E+000	-3,3601791E-001	-3,3578178E-001	-6,691829211194988E-002	1,000000000000000E+000	3,7269169E-004	41	2,2469943E-005
2	0	0	1	0	4,609999883541605E+000	-3,4941104E-001	-3,4920734E-001	-6,957066122655881E-002	1,000000000000000E+000	3,7086059E-004	41	2,4294586E-005
2	0	0	1	0	4,636599882869632E+000	-3,6270419E-001	-3,6250022E-001	-7,219352691123859E-002	1,000000000000000E+000	3,6897307E-004	41	2,6170170E-005
2	0	0	1	0	4,663199882197659E+000	-3,7599736E-001	-3,7576169E-001	-7,482492687025366E-002	1,000000000000000E+000	3,6701563E-004	41	2,8116341E-005
2	0	0	1	0	4,689899881523161E+000	-3,8935715E-001	-3,8915604E-001	-7,747771601887121E-002	1,000000000000000E+000	3,6498040E-004	41	3,0150921E-005
2	0	0	1	0	4,716599880848662E+000	-4,0271699E-001	-4,0251076E-001	-8,010620640610157E-002	1,000000000000000E+000	3,6287453E-004	41	3,2243610E-005
2	0	0	1	0	4,743199880176689E+000	-4,1601014E-001	-4,1579649E-001	-8,273434308842598E-002	1,000000000000000E+000	3,6070668E-004	41	3,4400648E-005
2	0	0	1	0	4,769799879504717E+000	-4,2930329E-001	-4,2906830E-001	-8,536285084167805E-002	1,000000000000000E+000	3,5846894E-004	41	3,6626494E-005
2	0	0	1	0	4,796599878827692E+000	-4,4269642E-001	-4,4244057E-001	-8,800322602619376E-002	1,000000000000000E+000	3,5614375E-004	41	3,8936196E-005
2	0	0	1	0	4,823199878155719E+000	-4,5602286E-001	-4,5576525E-001	-9,064298222462330E-002	1,000000000000000E+000	3,5376576E-004	41	4,1311920E-005
2	0	0	1	0	4,849799877483747E+000	-4,6931610E-001	-4,6909299E-001	-9,327911317814119E-002	1,000000000000000E+000	3,5131769E-004	41	4,3756580E-005
2	0	0	1	0	4,876399876811774E+000	-4,8260924E-001	-4,8238188E-001	-9,589890581652649E-002	1,000000000000000E+000	3,4879963E-004	41	4,6259895E-005
2	0	0	1	0	4,903199876134750E+000	-4,9600241E-001	-4,9576560E-001	-9,854071089551630E-002	1,000000000000000E+000	3,4619201E-004	41	4,8853093E-005
2	0	0	1	0	4,929799875462777E+000	-5,0929552E-001	-5,0909543E-001	-1,011778642733890E-001	1,000000000000000E+000	3,4353373E-004	41	5,1509189E-005
2	0	0	1	0	4,956399874790804E+000	-5,2262205E-001	-5,2237457E-001	-1,038032998311489E-001	1,000000000000000E+000	3,4080539E-004	41	5,4224205E-005
2	0	0	1	0	4,982999874118832E+000	-5,3591514E-001	-5,3567713E-001	-1,064297531673215E-001	1,000000000000000E+000	3,3800708E-004	41	5,7011985E-005
2	0	0	1	0	5,009799873441807E+000	-5,4930830E-001	-5,4908210E-001	-1,090769662463569E-001	1,000000000000000E+000	3,3511719E-004	41	5,9892209E-005
2	0	0	1	0	5,066399872011971E+000	-5,7759374E-001	-5,7738352E-001	-1,145912736246824E-001	1,000000000000000E+000	3,2882372E-004	40	6,6163113E-005
2	0	0	1	0	5,092999871339998E+000	-5,9092027E-001	-5,9070241E-001	-1,172258743608829E-001	1,000000000000000E+000	3,2573839E-004	40	6,9245609E-005
2	0	0	1	0	5,119599870668026E+000	-6,0421342E-001	-6,0398149E-001	-1,198421848569217E-001	1,000000000000000E+000	3,2258319E-004	40	7,2382463E-005
2	0	0	1	0	5,146399869991001E+000	-6,1760652E-001	-6,1732805E-001	-1,225067656448420E-001	1,000000000000000E+000	3,1933357E-004	40	7,5626864E-005
2	0	0	1	0	5,172999869319028E+000	-6,3089967E-001	-6,3068545E-001	-1,250994026583307E-001	1,000000000000000E+000	3,1603817E-004	40	7,8898374E-005
2	0	0	1	0	5,199599868647056E+000	-6,4419287E-001	-6,4393109E-001	-1,277326384598081E-001	1,000000000000000E+000	3,1267275E-004	40	8,2251019E-005
2	0	0	1	0	5,226199867975083E+000	-6,5751940E-001	-6,5723318E-001	-1,303567876340818E-001	1,000000000000000E+000	3,0923763E-004	40	8,5674808E-005
2	0	0	1	0	5,252999867298058E+000	-6,7091250E-001	-6,7069435E-001	-1,330386076335941E-001	1,000000000000000E+000	3,0570602E-004	40	8,9228241E-005
2	0	0	1	0	5,279599866626086E+000	-6,8420571E-001	-6,8400961E-001	-1,356810223311182E-001	1,000000000000000E+000	3,0213036E-004	40	9,2807124E-005
2	0	0	1	0	5,306199865954113E+000	-6,9749880E-001	-6,9733030E-001	-1,383033435209655E-001	1,000000000000000E+000	2,9848449E-004	40	9,6443109E-005
2	0	0	1	0	5,332999865277088E+000	-7,1089190E-001	-7,1066105E-001	-1,409442856830224E-001	1,000000000000000E+000	2,9474054E-004	40	1,0016361E-004
2	0	0	1	0	5,359599864605116E+000	-7,2421843E-001	-7,2402471E-001	-1,435714046082763E-001	1,000000000000000E+000	2,9095440E-004	40	1,0394924E-004
2	0	0	1	0	5,386199863933143E+000	-7,3751163E-001	-7,3733091E-001	-1,462009571492668E-001	1,000000000000000E+000	2,8709814E-004	40	1,0779849E-004
2	0	0	1	0	5,412799863261171E+000	-7,5080478E-001	-7,5062585E-001	-1,488492467964528E-001	1,000000000000000E+000	2,8317157E-004	40	1,1173009E-004
2	0	0	1	0	5,439599862584146E+000	-7,6419789E-001	-7,6400858E-001	-1,514973780392508E-001	1,000000000000000E+000	2,7914505E-004	40	1,1574529E-004
2	0	0	1	0	5,466199861912173E+000	-7,7749103E-001	-7,7727336E-001	-1,541151432941357E-001	1,000000000000000E+000	2,7507858E-004	40	1,1978960E-004
2	0	0	1	0	5,492799861240201E+000	-7,9081756E-001	-7,9060304E-001	-1,567464064884310E-001	1,000000000000000E+000	2,7094188E-004	40	1,2392418E-004
2	0	0	1	0	5,519399860568228E+000	-8,0411071E-001	-8,0389583E-001	-1,593807906785514E-001	1,000000000000000E+000	2,6673530E-004	40	1,2812555E-004
2	0	0	1	0	5,546199859891203E+000	-8,1750375E-001	-8,1728715E-001	-1,620383414420452E-001	1,000000000000000E+000	2,6242642E-004	40	1,3243186E-004
2	0	0	1	0	5,572799859219231E+000	-8,3079690E-001	-8,3060151E-001	-1,646439866764315E-001	1,000000000000000E+000	2,5807953E-004	40	1,3675354E-004
2	0	0	1	0	5,599399858547258E+000	-8,4411234E-001	-8,4387845E-001	-1,672510137005392E-001	1,000000000000000E+000	2,5366308E-004	40	1,4113952E-004
2	0	0	1	0	5,625999857875286E+000	-8,5741669E-001	-8,5723102E-001	-1,698654083341049E-001	1,000000000000000E+000	2,4917684E-004	40	1,4561390E-004
2	0	0	1	0	5,652799857198261E+000	-8,7080979E-001	-8,7058687E-001	-1,725384953781028E-001	1,000000000000000E+000	2,4458620E-004	40	1,5020974E-004
2	0	0	1	0	5,679399856526288E+000	-8,8410288E-001	-8,8391048E-001	-1,751607143475358E-001	1,000000000000000E+000	2,3995977E-004	40	1,5482640E-004
2	0	0	1	0	5,705999855854316E+000	-8,9739603E-001	-8,9719617E-001	-1,778172498025619E-001	1,000000000000000E+000	2,3526310E-004	40	1,5953695E-004
2	0	0	1	0	5,732599855182343E+000	-9,1072255E-001	-9,1045904E-001	-1,804103181794448E-001	1,000000000000000E+000	2,3049672E-004	40	1,6425620E-004
2	0	0	1	0	5,759399854505318E+000	-9,2411566E-001	-9,2389077E-001	-1,830625658447382E-001	1,000000000000000E+000	2,2562359E-004	40	1,6912981E-004
2	0	0	1	0	5,785999853833346E+000	-9,3740880E-001	-9,3717241E-001	-1,857083696794382E-001	1,000000000000000E+000	2,2071676E-004	40	1,7404076E-004
2	0	0	1	0	5,812599853161373E+000	-9,5070195E-001	-9,5046395E-001	-1,883246153515446E-001	1,000000000000000E+000	2,1573964E-004	40	1,7899576E-004
2	0	0	1	0	5,839399852484348E+000	-9,6409512E-001	-9,6383905E-001	-1,909741221985315E-001	1,000000000000000E+000	2,1065469E-004	40	1,8406831E-004
2	0	0	1	0	5,865999851812376E+000	-9,7742164E-001	-9,7719336E-001	-1,936117059163127E-001	1,000000000000000E+000	2,0553761E-004	40	1,8919607E-004
2	0	0	1	0	5,892599851140403E+000	-9,9071485E-001	-9,9047559E-001	-1,962427862357190E-001	1,000000000000000E+000	2,0035054E-004	40	1,9437369E-004
2	0	0	0	1	5,911399850665475E+000	-9,9987650E-001	-9,9965721E-001	-1,979901008307934E-001	1,000000000000000E+000	1,9664272E-004	40	1,9792223E-004
2	0	0	1	1	5,934999850069289E+000	-9,8804957E-001	-9,8784870E-001	-1,946541446164090E-001	1,000000000000000E+000	1,9202179E-004	40	1,9228885E-004
2	0	0	1	1	5,961599849397317E+000	-9,7475624E-001	-9,7448742E-001	-1,920039450575137E-001	1,000000000000000E+000	1,8688169E-004	40	1,8710543E-004
2	0	0	1	1	5,988199848725344E+000	-9,6142983E-001	-9,6119684E-001	-1,893609064320723E-001	1,000000000000000E+000	1,8181180E-004	40	1,8201310E-004
2	0	0	1	1	6,014999848048319E+000	-9,4803679E-001	-9,4780278E-001	-1,867095271746311E-001	1,000000000000000E+000	1,7677431E-004	40	1,7696380E-004
2	0	0	1	1	6,041599847376347E+000	-9,3474352E-001	-9,3451792E-001	-1,840975825830040E-001	1,000000000000000E+000	1,7184451E-004	40	1,7204249E-004
2	0	0	1	1	6,068199846704374E+000	-9,2145038E-001	-9,2123902E-001	-1,814513940655152E-001	1,000000000000000E+000	1,6698493E-004	40	1,6716011E-004
2	0	0	1	1	6,094899846029875E+000	-9,0807903E-001	-9,0790534E-001	-1,787971637496755E-001	1,000000000000000E+000	1,6217743E-004	40	1,6233089E-004
2	0	0	1	1	6,121599845355377E+000	-8,9473081E-001	-8,9452618E-001	-1,761853896450094E-001	1,000000000000000E+000	1,5744026E-004	40	1,5760244E-004
2	0	0	1	1	6,148199844683404E+000	-8,8143760E-001	-8,8120228E-001	-1,735388575296386E-001	1,000000000000000E+000	1,5279124E-004	40	1,5292283E-004
2	0	0	1	1	6,174799844011432E+000	-8,6814451E-001	-8,6794031E-001	-1,709318361303307E-001	1,000000000000000E+000	1,4821194E-004	40	1,4835862E-004
2	0	0	1	1	6,201599843334407E+000	-8,5475129E-001	-8,5454798E-001	-1,682825834141108E-001	1,000000000000000E+000	1,4366869E-004	40	1,4380555E-004
2	0	0	1	1	6,228199842662434E+000	-8,4142488E-001	-8,4117156E-001	-1,656603967732125E-001	1,000000000000000E+000	1,3922963E-004	40	1,3934882E-004
2	0	0	1	1	6,254799841990462E+000	-8,2813168E-001	-8,2795018E-001	-1,630541748716485E-001	1,000000000000000E+000	1,3486014E-004	40	1,3500074E-004
2	0	0	1	1	6,281399841318489E+000	-8,1483865E-001	-8,1465936E-001	-1,604073771217371E-001	1,000000000000000E+000	1,3056042E-004	40	1,3067738E-004
2	0	0	1	1	6,308199840641464E+000	-8,0144542E-001	-8,0118936E-001	-1,577464002087554E-001	1,000000000000000E+000	1,2629917E-004	40	1,2638474E-004
2	0	0	1	1	6,334799839969492E+000	-7,8815228E-001	-7,8791392E-001	-1,551219660420124E-001	1,000000000000000E+000	1,2213974E-004	40	1,2222276E-004
2	0	0	1	1	6,361399839297519E+000	-7,7482581E-001	-7,7463198E-001	-1,525007667058769E-001	1,000000000000000E+000	1,1805053E-004	40	1,1813197E-004
2	0	0	1	1	6,387999838625547E+000	-7,6153260E-001	-7,6130962E-001	-1,498651025409337E-001	1,000000000000000E+000	1,1403115E-004	40	1,1409375E-004
2	0	0	1	1	6,414799837948522E+000	-7,4813938E-001	-7,4795556E-001	-1,472321275544040E-001	1,000000000000000E+000	1,1005191E-004	40	1,1012309E-004
2	0	0	1	1	6,441399837276549E+000	-7,3484623E-001	-7,3464888E-001	-1,445973027342302E-001	1,000000000000000E+000	1,0617283E-004	40	1,0622825E-004
2	0	0	1	1	6,467999836604577E+000	-7,2155315E-001	-7,2132915E-001	-1,419742806717599E-001	1,000000000000000E+000	1,0236345E-004	40	1,0241019E-004
2	0	0	1	1	6,494599835932604E+000	-7,0822662E-001	-7,0804012E-001	-1,393344076893597E-001	1,000000000000000E+000	9,8624427E-005	40	9,8654353E-005
2	0	0	1	1	6,521399835255579E+000	-6,9483346E-001	-6,9463235E-001	-1,367014043615196E-001	1,000000000000000E+000	9,4927847E-005	40	9,4957220E-005
2	0	0	1	1	6,547999834583607E+000	-6,8154031E-001	-6,8135321E-001	-1,340616452410659E-001	1,000000000000000E+000	9,1329042E-005	40	9,1343332E-005
2	0	0	1	1	6,574599833911634E+000	-6,6824722E-001	-6,6803455E-001	-1,314111604917949E-001	1,000000000000000E+000	8,7800581E-005	40	8,7787193E-005
2	0	0	1	1	6,601399833234609E+000	-6,5485406E-001	-6,5461785E-001	-1,287653099958939E-001	1,000000000000000E+000	8,4316045E-005	40	8,4292071E-005
2	0	0	1	1	6,627999832562637E+000	-6,4152753E-001	-6,4128882E-001	-1,261521591785519E-001	1,000000000000000E+000	8,0927915E-005	40	8,0899968E-005
2	0	0	1	1	6,654599831890664E+000	-6,2823445E-001	-6,2799650E-001	-1,234969187159245E-001	1,000000000000000E+000	7,7609591E-005	40	7,7555633E-005
2	0	0	1	1	6,681199831218692E+000	-6,1494118E-001	-6,1467230E-001	-1,208836996675626E-001	1,000000000000000E+000	7,4361189E-005	40	7,4303862E-005
2	0	0	1	1	6,707999830541667E+000	-6,0154808E-001	-6,0130942E-001	-1,182614085943592E-001	1,000000000000000E+000	7,1158756E-005	40	7,1111695E-005
2	0	0	1	1	6,734599829869694E+000	-5,8825487E-001	-5,8803749E-001	-1,156070723256564E-001	1,000000000000000E+000	6,8050293E-005	40	6,7981295E-005
2	0	0	1	1	6,761199829197722E+000	-5,7492846E-001	-5,7470667E-001	-1,129841768415640E-001	1,000000000000000E+000	6,5012013E-005	40	6,4932763E-005
2	0	0	1	1	6,787799828525749E+000	-5,6163532E-001	-5,6141382E-001	-1,103604521602392E-001	1,000000000000000E+000	6,2043640E-005	40	6,1957886E-005
2	0	0	1	1	6,814599827848724E+000	-5,4824215E-001	-5,4801178E-001	-1,076896678074264E-001	1,000000000000000E+000	5,9123613E-005	40	5,9015205E-005
2	0	0	1	1	6,841199827176752E+000	-5,3494900E-001	-5,3473926E-001	-1,050600571228034E-001	1,000000000000000E+000	5,6295954E-005	40	5,6179735E-005
2	0	0	1	1	6,867799826504779E+000	-5,2165586E-001	-5,2140629E-001	-1,024381108213368E-001	1,000000000000000E+000	5,3538166E-005	40	5,3411877E-005
2	0	0	1	1	6,894399825832807E+000	-5,0832933E-001	-5,0806528E-001	-9,978059413066820E-002	1,000000000000000E+000	5,0850242E-005	40	5,0695056E-005
2	0	0	1	1	6,921199825155782E+000	-4,9493629E-001	-4,9469638E-001	-9,714614646315214E-002	1,000000000000000E+000	4,8212878E-005	40	4,8057846E-005
2	0	0	1	1	6,947799824483809E+000	-4,8164308E-001	-4,8142198E-001	-9,451653436505381E-002	1,000000000000000E+000	4,5665558E-005	40	4,5502336E-005
2	0	0	1	1	6,974399823811837E+000	-4,6834993E-001	-4,6816623E-001	-9,192683617487368E-002	1,000000000000000E+000	4,3188073E-005	40	4,3037042E-005
2	0	0	1	1	7,001099823137338E+000	-4,5499009E-001	-4,5475847E-001	-8,925616896835709E-002	1,000000000000000E+000	4,0771702E-005	40	4,0589999E-005
2	0	0	1	1	7,027799822462839E+000	-4,4163033E-001	-4,4141057E-001	-8,664043636332863E-002	1,000000000000000E+000	3,8425722E-005	40	3,8244005E-005
2	0	0	1	1	7,054399821790867E+000	-4,2833713E-001	-4,2812529E-001	-8,400073950955012E-002	1,000000000000000E+000	3,6158362E-005	40	3,5962839E-005
2	0	0	1	1	7,080999821118894E+000	-4,1504398E-001	-4,1485205E-001	-8,135979532380577E-002	1,000000000000000E+000	3,3960991E-005	40	3,3752280E-005
2	0	0	1	1	7,107799820441869E+000	-4,0165085E-001	-4,0145379E-001	-7,874737125918396E-002	1,000000000000000E+000	3,1817632E-005	40	3,1613432E-005
2	0	0	1	1	7,134399819769897E+000	-3,8832438E-001	-3,8814846E-001	-7,610066975369900E-002	1,000000000000000E+000	2,9760347E-005	40	2,9538358E-005
2	0	0	1	1	7,160999819097924E+000	-3,7503120E-001	-3,7483263E-001	-7,347230605179597E-002	1,000000000000000E+000	2,7773303E-005	40	2,7539818E-005
2	0	0	1	1	7,187599818425952E+000	-3,6173806E-001	-3,6155108E-001	-7,083951540116673E-002	1,000000000000000E+000	2,5856079E-005	40	2,5612104E-005
2	0	0	1	1	7,214399817748927E+000	-3,4834489E-001	-3,4813926E-001	-6,820500049313205E-002	1,000000000000000E+000	2,3994988E-005	40	2,3744838E-005
2	0	0	1	1	7,240999817076954E+000	-3,3505175E-001	-3,3480808E-001	-6,553978239535341E-002	1,000000000000000E+000	2,2218275E-005	40	2,1943250E-005
2	0	0	1	1	7,267599816404982E+000	-3,2172528E-001	-3,2154414E-001	-6,292474882696586E-002	1,000000000000000E+000	2,0511648E-005	40	2,0233085E-005
2	0	0	1	1	7,294199815733009E+000	-3,0843207E-001	-3,0822247E-001	-6,030996327172022E-002	1,000000000000000E+000	1,8874925E-005	40	1,8588886E-005
2	0	0	1	1	7,320999815055984E+000	-2,9503897E-001	-2,9479116E-001	-5,762300742790094E-002	1,000000000000000E+000	1,7296521E-005	40	1,6986753E-005
2	0	0	1	1	7,347599814384012E+000	-2,8174579E-001	-2,8152028E-001	-5,499457445015021E-002	1,000000000000000E+000	1,5800608E-005	40	1,5482088E-005
2	0	0	1	1	7,374199813712039E+000	-2,6845261E-001	-2,6820856E-001	-5,236226203560368E-002	1,000000000000000E+000	1,4374382E-005	40	1,4044007E-005
2	0	0	1	1	7,400799813040067E+000	-2,5512615E-001	-2,5488085E-001	-4,976198680718269E-002	1,000000000000000E+000	1,3018048E-005	40	1,2683377E-005
2	0	0	1	1	7,427599812363042E+000	-2,4173301E-001	-2,4150456E-001	-4,710233746397241E-002	1,000000000000000E+000	1,1722073E-005	40	1,1375429E-005
2	0	0	1	1	7,454199811691069E+000	-2,2843984E-001	-2,2818047E-001	-4,447304742837621E-002	1,000000000000000E+000	1,0505874E-005	40	1,0147881E-005
2	0	0	1	1	7,480799811019097E+000	-2,1514669E-001	-2,1495147E-001	-4,188868641213039E-002	1,000000000000000E+000	9,3592698E-006	40	9,0040348E-006
2	0	0	1	1	7,507599810342072E+000	-2,0175357E-001	-2,0151959E-001	-3,921481204743023E-002	1,000000000000000E+000	8,2748384E-006	40	7,9025531E-006
2	0	0	1	1	7,534199809670099E+000	-1,8842708E-001	-1,8821627E-001	-3,658825633319795E-002	1,000000000000000E+000	7,2689841E-006	40	6,8865052E-006
2	0	0	1	1	7,590799808240263E+000	-1,6014160E-001	-1,5993713E-001	-3,106686546670973E-002	1,000000000000000E+000	5,3013418E-006	41	4,9687451E-006
2	0	0	1	1	7,617399807568290E+000	-1,4684844E-001	-1,4665341E-001	-2,844218329846623E-002	1,000000000000000E+000	4,5119109E-006	41	4,1711432E-006
2	0	0	1	1	7,644199806891265E+000	-1,3345534E-001	-1,3324468E-001	-2,579801652900637E-002	1,000000000000000E+000	3,7871775E-006	41	3,4374484E-006
2	0	0	1	1	7,670799806219293E+000	-1,2012884E-001	-1,1994331E-001	-2,315969564854940E-002	1,000000000000000E+000	3,1382499E-006	41	2,7778506E-006
2	0	0	1	1	7,697399805547320E+000	-1,0683568E-001	-1,0660516E-001	-2,053517497818874E-002	1,000000000000000E+000	2,5592824E-006	41	2,1891558E-006
2	0	0	1	1	7,723999804875348E+000	-9,3542509E-002	-9,3319952E-002	-1,790913417935369E-002	1,000000000000000E+000	2,0502068E-006	41	1,6712795E-006
2	0	0	1	1	7,750799804198323E+000	-8,0149397E-002	-7,9959296E-002	-1,526098024672433E-002	1,000000000000000E+000	1,6078709E-006	41	1,2202572E-006
2	0	0	1	1	7,777399803526350E+000	-6,6845119E-002	-6,6674411E-002	-1,263296785715885E-002	1,000000000000000E+000	1,2389664E-006	41	8,4229572E-007
2	0	0	1	1	7,803999802854378E+000	-5,3529739E-002	-5,3321823E-002	-9,998164094940840E-003	1,000000000000000E+000	9,4012364E-007	41	5,3312033E-007
2	0	0	1	1	7,830599802182405E+000	-4,0236562E-002	-4,0009666E-002	-7,367059615353343E-003	1,000000000000000E+000	7,1112032E-007	41	2,9475359E-007
2	0	0	1	1	7,857399801505380E+000	-2,6843451E-002	-2,6620520E-002	-4,717687496607420E-003	1,000000000000000E+000	5,5126657E-007	41	1,2558729E-007
2	0	0	1	1	7,883999800833408E+000	-1,3550282E-002	-1,3337543E-002	-2,091687394810530E-003	1,000000000000000E+000	4,6266115E-007	41	2,7897972E-008
2	1	0	1	1	7,908899800204381E+000	-1,0951430E-003	-8,5247634E-004	3,711310333756046E-004	1,000000000000000E+000	4,4271266E-007	41	-3,1638042E-010
2	1	0	1	1	7,911199800146278E+000	2,7594712E-004	4,7079191E-004	7,197567611001432E-004	1,000000000000000E+000	4,4393880E-007	41	3,3885567E-010