File: zilien_version_2/2022-09-19 11_29_04 test-2/2022-09-19 11_29_04 test-22_02_01_CV_C01.mpt
EC-Lab ASCII FILE
Nb header lines : 63

Cyclic Voltammetry

Run on channel : 1 (SN 15565)
User :
Electrode connection : standard
Potential control : Ewe
Ewe ctrl range : min = -10,00 V, max = 10,00 V
Ewe,I filtering : <None>
Safety Limits :
	Do not start on E overload
Channel : Grounded
Acquisition started on : 09/19/2022 11:29:40.780
Technique started on : 09/19/2022 11:29:40.780
Loaded Setting File :  NONE
Saved on :
	File : 2022-09-19 11_29_04 test-22_02_01_CV_C01.mpr
	Directory : C:\Users\Spectro\Spectro Inlets Dropbox\08 Development\Data\eclab-integration\2022-09-19 11_29_04 test-22\
	Host : 192.168.56.1
Device : SP-300 (SN 1920)
Address : USB
EC-Lab for windows v11.43 (software)
Internet server v11.40 (firmware)
Command interpretor v11.43 (firmware)
Electrode material :
Initial state :
Electrolyte :
Comments :
Cable : standard
Electrode surface area : 0,001 cm²
Characteristic mass : 0,001 g
Equivalent Weight : 0,000 g/eq.
Density : 0,000 g/cm3
Volume (V) : 0,001 cm³
Text export
   Mode : Standard
   Time format : Elapsed
Cycle Definition : Charge/Discharge alternance
Ei (V)              0,000
vs.                 Eoc
dE/dt               500,000
dE/dt unit          mV/s
E1 (V)              1,000
vs.                 Ref
Step percent        50
N                   10
E range min (V)     -10,000
E range max (V)     10,000
I Range             Auto
I Range min         Unset
I Range max         Unset
I Range init        Unset
Bandwidth           8
E2 (V)              -1,000
vs.                 Ref
nc cycles           0
Reverse Scan        1
Ef (V)              0,000
vs.                 Eoc

mode	ox/red	error	control changes	counter inc.	time/s	control/V	Ewe/V	<I>/mA	cycle number	(Q-Qo)/C	I Range	P/W
2	1	0	1	0	0,000000000000000E+000	4,4586502E-002	4,4918813E-002	9,430281817913055E-003	1,000000000000000E+000	0,0000000E+000	42	4,2359707E-007
2	1	0	1	0	5,359999864595011E-002	7,1372718E-002	7,1650855E-002	1,471349300918520E-002	1,000000000000000E+000	6,0685920E-007	41	1,0542343E-006
2	1	0	1	0	8,039999796892516E-002	8,4765814E-002	8,5033067E-002	1,736191690118483E-002	1,000000000000000E+000	1,0387896E-006	41	1,4763370E-006
2	1	0	1	0	1,069999972969526E-001	9,8058984E-002	9,8385975E-002	1,999098943706490E-002	1,000000000000000E+000	1,5375795E-006	41	1,9668330E-006
2	1	0	1	0	1,335999966249801E-001	1,1135215E-001	1,1159442E-001	2,261657589115196E-002	1,000000000000000E+000	2,1062194E-006	41	2,5238837E-006
2	1	0	1	0	1,603999959479552E-001	1,2474526E-001	1,2502211E-001	2,526228927429963E-002	1,000000000000000E+000	2,7497742E-006	41	3,1583447E-006
2	1	0	1	0	1,869999952759827E-001	1,3807175E-001	1,3836579E-001	2,789870463311669E-002	1,000000000000000E+000	3,4589521E-006	41	3,8602261E-006
2	1	0	1	0	2,135999946040101E-001	1,5136491E-001	1,5163395E-001	3,052400680996170E-002	1,000000000000000E+000	4,2380448E-006	41	4,6284758E-006
2	1	0	1	0	2,401999939320376E-001	1,6465805E-001	1,6492651E-001	3,315201720737004E-002	1,000000000000000E+000	5,0870062E-006	41	5,4676466E-006
2	1	0	1	0	2,669999932550127E-001	1,7805117E-001	1,7832424E-001	3,579816495378818E-002	1,000000000000000E+000	6,0129710E-006	41	6,3836806E-006
2	1	0	1	0	2,935999925830401E-001	1,9134434E-001	1,9160156E-001	3,842656690928094E-002	1,000000000000000E+000	7,0022552E-006	41	7,3625902E-006
2	1	0	1	0	3,201999919110676E-001	2,0467080E-001	2,0493443E-001	4,106046060527047E-002	1,000000000000000E+000	8,0616219E-006	41	8,4147023E-006
2	1	0	1	0	3,467999912390951E-001	2,1796399E-001	2,1826147E-001	4,370055697024035E-002	1,000000000000000E+000	9,1908560E-006	41	9,5381474E-006
2	1	0	1	0	3,735999905620702E-001	2,3135711E-001	2,3165485E-001	4,634079554089121E-002	1,000000000000000E+000	1,0399410E-005	41	1,0735070E-005
2	1	0	1	0	4,001999898900976E-001	2,4465026E-001	2,4492122E-001	4,896449108831180E-002	1,000000000000000E+000	1,1669058E-005	41	1,1992443E-005
2	1	0	1	0	4,267999892181251E-001	2,5795451E-001	2,5824666E-001	5,158757696141647E-002	1,000000000000000E+000	1,3008520E-005	41	1,3322319E-005
2	1	0	1	0	4,533999885461526E-001	2,7126986E-001	2,7149582E-001	5,421835654706231E-002	1,000000000000000E+000	1,4418019E-005	41	1,4720057E-005
2	1	0	1	0	4,801999878691277E-001	2,8466299E-001	2,8490695E-001	5,687010483622224E-002	1,000000000000000E+000	1,5908736E-005	41	1,6202688E-005
2	1	0	1	0	5,067999871971551E-001	2,9795617E-001	2,9819030E-001	5,948916367779022E-002	1,000000000000000E+000	1,7458426E-005	41	1,7739092E-005
2	1	0	1	0	5,333999865251826E-001	3,1124935E-001	3,1150940E-001	6,212661174455802E-002	1,000000000000000E+000	1,9078221E-005	41	1,9353023E-005
2	1	0	1	0	5,600999858506839E-001	3,2462060E-001	3,2487828E-001	6,477819558469866E-002	1,000000000000000E+000	2,0774367E-005	41	2,1045029E-005
2	1	0	1	0	5,867999851761851E-001	3,3796892E-001	3,3823740E-001	6,740982149397812E-002	1,000000000000000E+000	2,2541073E-005	41	2,2800523E-005
2	1	0	1	0	6,133999845042126E-001	3,5126209E-001	3,5154694E-001	7,004342289195259E-002	1,000000000000000E+000	2,4371238E-005	41	2,4623550E-005
2	1	0	1	0	6,399999838322401E-001	3,6455521E-001	3,6480114E-001	7,266608675709030E-002	1,000000000000000E+000	2,6271313E-005	41	2,6508671E-005
2	1	0	1	0	6,667999831552152E-001	3,7794834E-001	3,7821579E-001	7,531303064703632E-002	1,000000000000000E+000	2,8256307E-005	41	2,8484577E-005
2	1	0	1	0	6,933999824832426E-001	3,9127481E-001	3,9158469E-001	7,795522503729457E-002	1,000000000000000E+000	3,0296784E-005	41	3,0526073E-005
2	1	0	1	0	7,199999818112701E-001	4,0456805E-001	4,0486595E-001	8,058115885263170E-002	1,000000000000000E+000	3,2407333E-005	41	3,2624568E-005
2	1	0	1	0	7,465999811392976E-001	4,1786116E-001	4,1814467E-001	8,319889618918141E-002	1,000000000000000E+000	3,4587694E-005	41	3,4789176E-005
2	1	0	1	0	7,733999804622727E-001	4,3125427E-001	4,3149567E-001	8,585327728554470E-002	1,000000000000000E+000	3,6855141E-005	41	3,7045316E-005
2	1	0	1	0	7,999999797903001E-001	4,4454738E-001	4,4480932E-001	8,847795759599397E-002	1,000000000000000E+000	3,9175753E-005	41	3,9355818E-005
2	1	0	1	0	8,265999791183276E-001	4,5787391E-001	4,5813119E-001	9,111153908500735E-002	1,000000000000000E+000	4,1566345E-005	41	4,1741037E-005
2	1	0	1	0	8,531999784463551E-001	4,7116706E-001	4,7145024E-001	9,374739372869978E-002	1,000000000000000E+000	4,4026900E-005	41	4,4197230E-005
2	1	0	1	0	8,799999777693301E-001	4,8456019E-001	4,8481408E-001	9,639047519012811E-002	1,000000000000000E+000	4,6576828E-005	41	4,6731460E-005
2	1	0	1	0	9,065999770973576E-001	4,9785334E-001	4,9812359E-001	9,901786330059048E-002	1,000000000000000E+000	4,9177816E-005	41	4,9323135E-005
2	1	0	1	0	9,331999764253851E-001	5,1114655E-001	5,1139420E-001	1,016365572480331E-001	1,000000000000000E+000	5,1848634E-005	41	5,1976345E-005
2	1	0	1	0	9,597999757534126E-001	5,2447295E-001	5,2474833E-001	1,042785567250881E-001	1,000000000000000E+000	5,4589542E-005	41	5,4720000E-005
2	1	0	1	0	9,865999750763876E-001	5,3786606E-001	5,3813028E-001	1,069262037713389E-001	1,000000000000000E+000	5,7421774E-005	41	5,7540230E-005
2	1	0	1	0	1,013199974404415E+000	5,5115926E-001	5,5140615E-001	1,095488232288820E-001	1,000000000000000E+000	6,0303049E-005	41	6,0405895E-005
2	1	0	1	0	1,069799972974579E+000	5,7944477E-001	5,7969677E-001	1,152209597406912E-001	1,000000000000000E+000	6,6626875E-005	40	6,6793218E-005
2	1	0	1	0	1,096399972302606E+000	5,9277123E-001	5,9303069E-001	1,178524170361925E-001	1,000000000000000E+000	6,9729125E-005	40	6,9890099E-005
2	1	0	1	0	1,123199971625581E+000	6,0616434E-001	6,0642993E-001	1,205086347996266E-001	1,000000000000000E+000	7,2925373E-005	40	7,3080046E-005
2	1	0	1	0	1,149799970953609E+000	6,1945754E-001	6,1966527E-001	1,231349346577190E-001	1,000000000000000E+000	7,6168071E-005	40	7,6302444E-005
2	1	0	1	0	1,176399970281636E+000	6,3275063E-001	6,3297480E-001	1,257615196208164E-001	1,000000000000000E+000	7,9480480E-005	40	7,9603873E-005
2	1	0	1	0	1,203099969607138E+000	6,4609891E-001	6,4640999E-001	1,284077176884432E-001	1,000000000000000E+000	8,2875733E-005	40	8,3004030E-005
2	1	0	1	0	1,229799968932639E+000	6,5947020E-001	6,5970635E-001	1,310439682255191E-001	1,000000000000000E+000	8,6341941E-005	40	8,6450542E-005
2	1	0	1	0	1,256399968260666E+000	6,7276335E-001	6,7298836E-001	1,336756172279518E-001	1,000000000000000E+000	8,9864989E-005	40	8,9962137E-005
2	1	0	1	0	1,282999967588694E+000	6,8605661E-001	6,8629849E-001	1,362808486485545E-001	1,000000000000000E+000	9,3457835E-005	40	9,3529343E-005
2	1	0	1	0	1,309799966911669E+000	6,9944966E-001	6,9970495E-001	1,389544744044543E-001	1,000000000000000E+000	9,7148833E-005	40	9,7227130E-005
2	1	0	1	0	1,336399966239696E+000	7,1276504E-001	7,1300793E-001	1,416018620502050E-001	1,000000000000000E+000	1,0088263E-004	40	1,0096325E-004
2	1	0	1	0	1,362999965567724E+000	7,2606921E-001	7,2636765E-001	1,442387380656629E-001	1,000000000000000E+000	1,0468620E-004	40	1,0477036E-004
2	1	0	1	0	1,389599964895751E+000	7,3936248E-001	7,3962420E-001	1,468530327818980E-001	1,000000000000000E+000	1,0855983E-004	40	1,0861606E-004
2	1	0	1	0	1,416399964218726E+000	7,5275552E-001	7,5304198E-001	1,494991905696230E-001	1,000000000000000E+000	1,1253297E-004	40	1,1257917E-004
2	1	0	1	0	1,442999963546754E+000	7,6604873E-001	7,6630217E-001	1,521220845267335E-001	1,000000000000000E+000	1,1654658E-004	40	1,1657149E-004
2	1	0	1	0	1,469599962874781E+000	7,7937520E-001	7,7967113E-001	1,547561844772036E-001	1,000000000000000E+000	1,2063002E-004	40	1,2065893E-004
2	1	0	1	0	1,496199962202809E+000	7,9266834E-001	7,9293084E-001	1,573866767925213E-001	1,000000000000000E+000	1,2478334E-004	40	1,2479674E-004
2	1	0	1	0	1,522999961525784E+000	8,0606145E-001	8,0634940E-001	1,600144459264508E-001	1,000000000000000E+000	1,2903872E-004	40	1,2902755E-004
2	1	0	1	0	1,549599960853811E+000	8,1935465E-001	8,1962317E-001	1,626797640152897E-001	1,000000000000000E+000	1,3333245E-004	40	1,3333610E-004
2	1	0	1	0	1,576199960181839E+000	8,3264768E-001	8,3292812E-001	1,652951916873766E-001	1,000000000000000E+000	1,3769632E-004	40	1,3767902E-004
2	1	0	1	0	1,602799959509866E+000	8,4597433E-001	8,4625006E-001	1,679442001099227E-001	1,000000000000000E+000	1,4213014E-004	40	1,4212279E-004
2	1	0	1	0	1,629599958832841E+000	8,5936737E-001	8,5965621E-001	1,705732427401632E-001	1,000000000000000E+000	1,4666813E-004	40	1,4663435E-004
2	1	0	1	0	1,656199958160869E+000	8,7266052E-001	8,7291962E-001	1,731974771285124E-001	1,000000000000000E+000	1,5124235E-004	40	1,5118747E-004
2	1	0	1	0	1,682799957488896E+000	8,8595366E-001	8,8621747E-001	1,758215142161745E-001	1,000000000000000E+000	1,5588640E-004	40	1,5581610E-004
2	1	0	1	0	1,709599956811871E+000	8,9934677E-001	8,9965087E-001	1,784969189669945E-001	1,000000000000000E+000	1,6063619E-004	40	1,6058491E-004
2	1	0	1	0	1,736199956139899E+000	9,1267329E-001	9,1295177E-001	1,811031811521386E-001	1,000000000000000E+000	1,6542104E-004	40	1,6533847E-004
2	1	0	1	0	1,762799955467926E+000	9,2596656E-001	9,2624098E-001	1,837161694886165E-001	1,000000000000000E+000	1,7027548E-004	40	1,7016544E-004
2	1	0	1	0	1,789399954795954E+000	9,3925971E-001	9,3954319E-001	1,863538020600879E-001	1,000000000000000E+000	1,7519981E-004	40	1,7508745E-004
2	1	0	1	0	1,816199954118929E+000	9,5265281E-001	9,5288658E-001	1,889875477082876E-001	1,000000000000000E+000	1,8023160E-004	40	1,8008371E-004
2	1	0	1	0	1,842799953446956E+000	9,6594590E-001	9,6612573E-001	1,916128921594162E-001	1,000000000000000E+000	1,8529581E-004	40	1,8512215E-004
2	1	0	1	0	1,869399952774984E+000	9,7927237E-001	9,7949082E-001	1,942595006723429E-001	1,000000000000000E+000	1,9043019E-004	40	1,9027540E-004
2	1	0	1	0	1,895999952103011E+000	9,9256563E-001	9,9284160E-001	1,969109095788255E-001	1,000000000000000E+000	1,9563483E-004	40	1,9550134E-004
2	1	0	1	0	1,914599951633136E+000	9,9829590E-001	9,9859160E-001	1,972753739023274E-001	1,000000000000000E+000	1,9931051E-004	40	1,9699753E-004
2	1	0	1	0	1,941399950956111E+000	9,8490280E-001	9,8520893E-001	1,942888455717666E-001	1,000000000000000E+000	2,0455201E-004	40	1,9141511E-004
2	1	0	1	0	1,967999950284138E+000	9,7158748E-001	9,7183144E-001	1,916674470781192E-001	1,000000000000000E+000	2,0968268E-004	40	1,8626846E-004
2	1	0	1	0	1,994599949612166E+000	9,5828319E-001	9,5853698E-001	1,890421575109942E-001	1,000000000000000E+000	2,1474360E-004	40	1,8120390E-004
2	1	0	1	0	2,021199948940193E+000	9,4498998E-001	9,4523048E-001	1,864191313002577E-001	1,000000000000000E+000	2,1973469E-004	40	1,7620904E-004
2	1	0	1	0	2,047999948263168E+000	9,3159693E-001	9,3185490E-001	1,837801736430267E-001	1,000000000000000E+000	2,2469289E-004	40	1,7125646E-004
2	1	0	1	0	2,074599947591196E+000	9,1830379E-001	9,1862708E-001	1,811566371839342E-001	1,000000000000000E+000	2,2954396E-004	40	1,6641540E-004
2	1	0	1	0	2,101199946919223E+000	9,0497726E-001	9,0526634E-001	1,784998512885068E-001	1,000000000000000E+000	2,3432517E-004	40	1,6158991E-004
2	1	0	1	0	2,127799946247251E+000	8,9168417E-001	8,9192873E-001	1,758601608239898E-001	1,000000000000000E+000	2,3903618E-004	40	1,5685473E-004
2	1	0	1	0	2,154599945570226E+000	8,7829095E-001	8,7855625E-001	1,731935941711225E-001	1,000000000000000E+000	2,4371182E-004	40	1,5216031E-004
2	1	0	1	0	2,181199944898253E+000	8,6499780E-001	8,6525410E-001	1,706124168335625E-001	1,000000000000000E+000	2,4828254E-004	40	1,4762310E-004
2	1	0	1	0	2,207799944226281E+000	8,5170466E-001	8,5196716E-001	1,679699489808018E-001	1,000000000000000E+000	2,5278344E-004	40	1,4310487E-004
2	1	0	1	0	2,234399943554308E+000	8,3837819E-001	8,3867204E-001	1,653139982954603E-001	1,000000000000000E+000	2,5721401E-004	40	1,3864423E-004
2	1	0	1	0	2,261199942877283E+000	8,2498509E-001	8,2521218E-001	1,626552066241860E-001	1,000000000000000E+000	2,6160700E-004	40	1,3422506E-004
2	1	0	1	0	2,287799942205311E+000	8,1169194E-001	8,1193709E-001	1,600354268196194E-001	1,000000000000000E+000	2,6589719E-004	40	1,2993869E-004
2	1	0	1	0	2,314399941533338E+000	7,9839879E-001	7,9868239E-001	1,574299346073532E-001	1,000000000000000E+000	2,7011745E-004	40	1,2573652E-004
2	1	0	1	0	2,341199940856313E+000	7,8500569E-001	7,8525734E-001	1,547505887923764E-001	1,000000000000000E+000	2,7429868E-004	40	1,2151904E-004
2	1	0	1	0	2,367799940184341E+000	7,7167910E-001	7,7191049E-001	1,521303924421473E-001	1,000000000000000E+000	2,7837857E-004	40	1,1743105E-004
2	1	0	1	0	2,394399939512368E+000	7,5838608E-001	7,5863999E-001	1,494927082501822E-001	1,000000000000000E+000	2,8238838E-004	40	1,1341114E-004
2	1	0	1	0	2,420999938840396E+000	7,4509293E-001	7,4536079E-001	1,468821882910560E-001	1,000000000000000E+000	2,8632832E-004	40	1,0948022E-004
2	1	0	1	0	2,447799938163371E+000	7,3169976E-001	7,3196286E-001	1,442536260932687E-001	1,000000000000000E+000	2,9022768E-004	40	1,0558830E-004
2	1	0	1	0	2,474399937491398E+000	7,1840656E-001	7,1864605E-001	1,416050532949162E-001	1,000000000000000E+000	2,9402750E-004	40	1,0176392E-004
2	1	0	1	0	2,500999936819426E+000	7,0508009E-001	7,0532739E-001	1,389913146481077E-001	1,000000000000000E+000	2,9775736E-004	40	9,8034383E-005
2	1	0	1	0	2,527599936147453E+000	6,9178694E-001	6,9200760E-001	1,363619991597564E-001	1,000000000000000E+000	3,0141757E-004	40	9,4363539E-005
2	1	0	1	0	2,554399935470428E+000	6,7839384E-001	6,7863840E-001	1,336996735752718E-001	1,000000000000000E+000	3,0503416E-004	40	9,0733731E-005
2	1	0	1	0	2,580999934798456E+000	6,6510069E-001	6,6532892E-001	1,310764823108916E-001	1,000000000000000E+000	3,0855378E-004	40	8,7208973E-005
2	1	0	1	0	2,607599934126483E+000	6,5180749E-001	6,5206170E-001	1,284640907736809E-001	1,000000000000000E+000	3,1200354E-004	40	8,3766514E-005
2	1	0	1	0	2,634199933454511E+000	6,3848096E-001	6,3871682E-001	1,258064775708287E-001	1,000000000000000E+000	3,1538293E-004	40	8,0354715E-005
2	1	0	1	0	2,660999932777486E+000	6,2508792E-001	6,2533367E-001	1,231639836934244E-001	1,000000000000000E+000	3,1871680E-004	40	7,7018587E-005
2	1	0	1	0	2,687599932105513E+000	6,1179477E-001	6,1205435E-001	1,205423950605720E-001	1,000000000000000E+000	3,2195586E-004	40	7,3778494E-005
2	1	0	1	0	2,714199931433541E+000	5,9850162E-001	5,9873950E-001	1,179060085773624E-001	1,000000000000000E+000	3,2512494E-004	40	7,0594986E-005
2	1	0	1	0	2,740999930756516E+000	5,8510846E-001	5,8539468E-001	1,152591126078436E-001	1,000000000000000E+000	3,2824720E-004	40	6,7472072E-005
2	1	0	1	0	2,767599930084543E+000	5,7178199E-001	5,7207596E-001	1,126178922092851E-001	1,000000000000000E+000	3,3127581E-004	40	6,4425993E-005
2	1	0	1	0	2,794199929412571E+000	5,5848879E-001	5,5874276E-001	1,100005329683587E-001	1,000000000000000E+000	3,3423465E-004	40	6,1462000E-005
2	1	0	1	0	2,820799928740598E+000	5,4519570E-001	5,4547721E-001	1,073759791751707E-001	1,000000000000000E+000	3,3712338E-004	40	5,8571150E-005
2	1	0	1	0	2,847599928063573E+000	5,3180254E-001	5,3207064E-001	1,047124147376355E-001	1,000000000000000E+000	3,3996342E-004	40	5,5714401E-005
2	1	0	1	0	2,874199927391601E+000	5,1849830E-001	5,1878452E-001	1,020831910602281E-001	1,000000000000000E+000	3,4271216E-004	40	5,2959178E-005
2	1	0	1	0	2,900799926719628E+000	5,0518292E-001	5,0542527E-001	9,946872624083580E-002	1,000000000000000E+000	3,4539084E-004	40	5,0274008E-005
2	1	0	1	0	2,927399926047656E+000	4,9188974E-001	4,9215171E-001	9,684554397632994E-002	1,000000000000000E+000	3,4799956E-004	40	4,7662699E-005
2	1	0	1	0	2,954199925370631E+000	4,7849661E-001	4,7878036E-001	9,419391024469714E-002	1,000000000000000E+000	3,5055715E-004	40	4,5098193E-005
2	1	0	1	0	2,980799924698658E+000	4,6520346E-001	4,6543443E-001	9,156297118073184E-002	1,000000000000000E+000	3,5302551E-004	40	4,2616561E-005
2	1	0	1	0	3,007399924026686E+000	4,5187697E-001	4,5215842E-001	8,893020404696797E-002	1,000000000000000E+000	3,5542413E-004	40	4,0210540E-005
2	1	0	1	0	3,033999923354713E+000	4,3858382E-001	4,3883145E-001	8,631927546715240E-002	1,000000000000000E+000	3,5775246E-004	40	3,7879614E-005
2	1	0	1	0	3,060799922677688E+000	4,2519075E-001	4,2543834E-001	8,364905806277712E-002	1,000000000000000E+000	3,6002742E-004	40	3,5587516E-005
2	1	0	1	0	3,087399922005716E+000	4,1189754E-001	4,1220140E-001	8,102294849425884E-002	1,000000000000000E+000	3,6221548E-004	40	3,3397773E-005
2	1	0	1	0	3,113999921333743E+000	3,9860439E-001	3,9888954E-001	7,840285666461577E-002	1,000000000000000E+000	3,6433383E-004	40	3,1274081E-005
2	1	0	1	0	3,140599920661771E+000	3,8527787E-001	3,8549536E-001	7,575867250561719E-002	1,000000000000000E+000	3,6638201E-004	40	2,9204617E-005
2	1	0	1	0	3,167399919984746E+000	3,7188482E-001	3,7215164E-001	7,311346326023360E-002	1,000000000000000E+000	3,6837472E-004	40	2,7209295E-005
2	1	0	1	0	3,193999919312773E+000	3,5859168E-001	3,5887003E-001	7,048363031838867E-002	1,000000000000000E+000	3,7028242E-004	40	2,5294463E-005
2	1	0	1	0	3,220599918640801E+000	3,4529850E-001	3,4554392E-001	6,786856205047465E-002	1,000000000000000E+000	3,7212021E-004	40	2,3451568E-005
2	1	0	1	0	3,247399917963776E+000	3,3190536E-001	3,3218750E-001	6,520302687228352E-002	1,000000000000000E+000	3,7390119E-004	40	2,1659631E-005
2	1	0	1	0	3,273999917291803E+000	3,1857890E-001	3,1881821E-001	6,259317476942661E-002	1,000000000000000E+000	3,7559873E-004	40	1,9955844E-005
2	1	0	1	0	3,300599916619831E+000	3,0528572E-001	3,0557799E-001	5,994788167784774E-002	1,000000000000000E+000	3,7722633E-004	40	1,8318753E-005
2	1	0	1	0	3,327199915947858E+000	2,9199257E-001	2,9227751E-001	5,730729469408608E-002	1,000000000000000E+000	3,7878373E-004	40	1,6749633E-005
2	1	0	1	0	3,353999915270833E+000	2,7859947E-001	2,7885234E-001	5,467602666661459E-002	1,000000000000000E+000	3,8028212E-004	40	1,5246538E-005
2	1	0	1	0	3,380599914598861E+000	2,6530629E-001	2,6553750E-001	5,205109501645611E-002	1,000000000000000E+000	3,8169941E-004	40	1,3821517E-005
2	1	0	1	0	3,407199913926888E+000	2,5197980E-001	2,5226089E-001	4,942708664651341E-002	1,000000000000000E+000	3,8304686E-004	40	1,2468521E-005
2	1	0	1	0	3,433799913254916E+000	2,3868665E-001	2,3897277E-001	4,679241550960211E-002	1,000000000000000E+000	3,8432417E-004	40	1,1182113E-005
2	1	0	1	0	3,460599912577891E+000	2,2529353E-001	2,2558559E-001	4,413855747116030E-002	1,000000000000000E+000	3,8554045E-004	40	9,9570225E-006
2	1	0	1	0	3,487199911905918E+000	2,1200038E-001	2,1222150E-001	4,152151557306463E-002	1,000000000000000E+000	3,8667760E-004	40	8,8117586E-006
2	1	0	1	0	3,513799911233946E+000	1,9870724E-001	1,9895901E-001	3,888150244116945E-002	1,000000000000000E+000	3,8774437E-004	40	7,7358254E-006
2	1	0	1	0	3,540399910561973E+000	1,8538074E-001	1,8561755E-001	3,623327324360937E-002	1,000000000000000E+000	3,8874129E-004	40	6,7255314E-006
2	1	0	1	0	3,597199909127085E+000	1,5699534E-001	1,5727396E-001	3,054673740019406E-002	1,000000000000000E+000	3,9069410E-004	41	4,8042066E-006
2	1	0	1	0	3,623799908455112E+000	1,4370218E-001	1,4396809E-001	2,792135740116170E-002	1,000000000000000E+000	3,9146960E-004	41	4,0197847E-006
2	1	0	1	0	3,650399907783140E+000	1,3040902E-001	1,3065112E-001	2,528541703965558E-002	1,000000000000000E+000	3,9217522E-004	41	3,3035681E-006
2	1	0	1	0	3,676999907111167E+000	1,1708254E-001	1,1733292E-001	2,265251431454103E-002	1,000000000000000E+000	3,9281056E-004	41	2,6578857E-006
2	1	0	1	0	3,703799906434142E+000	1,0368943E-001	1,0394976E-001	2,000146913802995E-002	1,000000000000000E+000	3,9338006E-004	41	2,0791479E-006
2	1	0	1	0	3,730399905762170E+000	9,0396255E-002	9,0637602E-002	1,738285120930722E-002	1,000000000000000E+000	3,9387523E-004	41	1,5755400E-006
2	1	0	1	0	3,756999905090197E+000	7,7103101E-002	7,7373832E-002	1,475509961552840E-002	1,000000000000000E+000	3,9430053E-004	41	1,1416586E-006
2	1	0	1	0	3,783699904415698E+000	6,3743301E-002	6,4027503E-002	1,211169502481613E-002	1,000000000000000E+000	3,9465725E-004	41	7,7548157E-007
2	1	0	1	0	3,810399903741200E+000	5,0383508E-002	5,0656140E-002	9,475908874446742E-003	1,000000000000000E+000	3,9494329E-004	41	4,8001294E-007
2	1	0	1	0	3,836999903069227E+000	3,7090346E-002	3,7343286E-002	6,840095690980291E-003	1,000000000000000E+000	3,9515813E-004	41	2,5543164E-007
2	1	0	1	0	3,863599902397254E+000	2,3797181E-002	2,4051413E-002	4,213154215055206E-003	1,000000000000000E+000	3,9530304E-004	41	1,0133231E-007
2	1	0	1	0	3,890399901720230E+000	1,0404070E-002	1,0632333E-002	1,568386539778052E-003	1,000000000000000E+000	3,9537839E-004	41	1,6675608E-008
2	0	0	1	0	3,916999901048257E+000	-2,9224090E-003	-2,7411657E-003	-1,086303017867371E-003	1,000000000000000E+000	3,9538275E-004	41	2,9777365E-009
2	0	0	1	0	3,943599900376285E+000	-1,6215580E-002	-1,5973223E-002	-3,705900527347705E-003	1,000000000000000E+000	3,9531704E-004	41	5,9195177E-008
2	0	0	1	0	3,970199899704312E+000	-2,9508749E-002	-2,9287288E-002	-6,329186096324185E-003	1,000000000000000E+000	3,9518144E-004	41	1,8536470E-007
2	0	0	1	0	3,996999899027287E+000	-4,2901862E-002	-4,2743117E-002	-8,986956454949265E-003	1,000000000000000E+000	3,9497411E-004	41	3,8413052E-007
2	0	0	1	0	4,023599898355315E+000	-5,6195032E-002	-5,5989798E-002	-1,161074404844836E-002	1,000000000000000E+000	3,9469803E-004	41	6,5008322E-007
2	0	0	1	0	4,050199897683342E+000	-6,9521517E-002	-6,9338255E-002	-1,424562967804371E-002	1,000000000000000E+000	3,9435207E-004	41	9,8776707E-007
2	0	0	1	0	4,076799897011369E+000	-8,2814686E-002	-8,2612976E-002	-1,687052858008724E-002	1,000000000000000E+000	3,9393609E-004	41	1,3937246E-006
2	0	0	1	0	4,103599896334345E+000	-9,6207805E-002	-9,5945530E-002	-1,951534336379454E-002	1,000000000000000E+000	3,9344639E-004	41	1,8724099E-006
2	0	0	1	0	4,130199895662372E+000	-1,0950097E-001	-1,0927879E-001	-2,213956487515439E-002	1,000000000000000E+000	3,9289030E-004	41	2,4193848E-006
2	0	0	1	0	4,156799894990399E+000	-1,2279415E-001	-1,2257289E-001	-2,476487960472396E-002	1,000000000000000E+000	3,9226434E-004	41	3,0355029E-006
2	0	0	1	0	4,183399894318427E+000	-1,3612063E-001	-1,3590916E-001	-2,740520539373403E-002	1,000000000000000E+000	3,9156814E-004	41	3,7246184E-006
2	0	0	1	0	4,210199893641402E+000	-1,4951374E-001	-1,4929670E-001	-3,005100677304046E-002	1,000000000000000E+000	3,9079611E-004	41	4,4865160E-006
2	0	0	1	0	4,236799892969429E+000	-1,6280691E-001	-1,6261272E-001	-3,268041726114446E-002	1,000000000000000E+000	3,8995963E-004	41	5,3142517E-006
2	0	0	1	0	4,263399892297457E+000	-1,7610008E-001	-1,7585801E-001	-3,531350544556808E-002	1,000000000000000E+000	3,8905328E-004	41	6,2101626E-006
2	0	0	1	0	4,290199891620432E+000	-1,8949316E-001	-1,8928188E-001	-3,795840483799107E-002	1,000000000000000E+000	3,8806946E-004	41	7,1848381E-006
2	0	0	1	0	4,316799890948460E+000	-2,0281966E-001	-2,0261380E-001	-4,058350192402327E-002	1,000000000000000E+000	3,8702274E-004	41	8,2227780E-006
2	0	0	1	0	4,343399890276487E+000	-2,1611285E-001	-2,1588953E-001	-4,321996213354079E-002	1,000000000000000E+000	3,8590597E-004	41	9,3307372E-006
2	0	0	1	0	4,369999889604514E+000	-2,2940603E-001	-2,2920221E-001	-4,584573519532559E-002	1,000000000000000E+000	3,8471926E-004	41	1,0507943E-005
2	0	0	1	0	4,396799888927490E+000	-2,4279915E-001	-2,4261078E-001	-4,849749822169526E-002	1,000000000000000E+000	3,8345298E-004	41	1,1766016E-005
2	0	0	1	0	4,423399888255517E+000	-2,5609228E-001	-2,5588796E-001	-5,112095036941677E-002	1,000000000000000E+000	3,8212602E-004	41	1,3081236E-005
2	0	0	1	0	4,449999887583544E+000	-2,6941878E-001	-2,6916921E-001	-5,374963070595773E-002	1,000000000000000E+000	3,8072906E-004	41	1,4467746E-005
2	0	0	1	0	4,476599886911572E+000	-2,8271198E-001	-2,8249103E-001	-5,637396749128420E-002	1,000000000000000E+000	3,7926226E-004	41	1,5925139E-005
2	0	0	1	0	4,503399886234547E+000	-2,9610512E-001	-2,9589796E-001	-5,903752015922981E-002	1,000000000000000E+000	3,7771373E-004	41	1,7469081E-005
2	0	0	1	0	4,529999885562574E+000	-3,0939826E-001	-3,0917940E-001	-6,165702266832024E-002	1,000000000000000E+000	3,7610647E-004	41	1,9063082E-005
2	0	0	1	0	4,556599884890602E+000	-3,2269141E-001	-3,2250014E-001	-6,428371248572740E-002	1,000000000000000E+000	3,7442934E-004	41	2,0731506E-005
2	0	0	1	0	4,583199884218629E+000	-3,3601791E-001	-3,3579773E-001	-6,691843947628479E-002	1,000000000000000E+000	3,7268215E-004	41	2,2471060E-005
2	0	0	1	0	4,609999883541605E+000	-3,4941104E-001	-3,4919369E-001	-6,957356751178523E-002	1,000000000000000E+000	3,7085099E-004	41	2,4294652E-005
2	0	0	1	0	4,636599882869632E+000	-3,6270419E-001	-3,6250201E-001	-7,219580496991185E-002	1,000000000000000E+000	3,6896340E-004	41	2,6171125E-005
2	0	0	1	0	4,663199882197659E+000	-3,7599736E-001	-3,7576467E-001	-7,482135339329640E-002	1,000000000000000E+000	3,6700594E-004	41	2,8115221E-005
2	0	0	1	0	4,689899881523161E+000	-3,8935715E-001	-3,8915867E-001	-7,747157025331575E-002	1,000000000000000E+000	3,6497071E-004	41	3,0148733E-005
2	0	0	1	0	4,716599880848662E+000	-4,0271699E-001	-4,0253204E-001	-8,010422627946046E-002	1,000000000000000E+000	3,6286490E-004	41	3,2244519E-005
2	0	0	1	0	4,743199880176689E+000	-4,1601014E-001	-4,1581029E-001	-8,273756255318077E-002	1,000000000000000E+000	3,6069698E-004	41	3,4403129E-005
2	0	0	1	0	4,769799879504717E+000	-4,2930329E-001	-4,2908999E-001	-8,536058034320992E-002	1,000000000000000E+000	3,5845925E-004	41	3,6627371E-005
2	0	0	1	0	4,796599878827692E+000	-4,4269642E-001	-4,4246474E-001	-8,800482370133955E-002	1,000000000000000E+000	3,5613409E-004	41	3,8939030E-005
2	0	0	1	0	4,823199878155719E+000	-4,5602286E-001	-4,5578399E-001	-9,063872582822397E-002	1,000000000000000E+000	3,5375610E-004	41	4,1311680E-005
2	0	0	1	0	4,849799877483747E+000	-4,6931610E-001	-4,6909878E-001	-9,327943204164768E-002	1,000000000000000E+000	3,5130803E-004	41	4,3757267E-005
2	0	0	1	0	4,876399876811774E+000	-4,8260924E-001	-4,8237476E-001	-9,589481036042935E-002	1,000000000000000E+000	3,4879002E-004	41	4,6257235E-005
2	0	0	1	0	4,903199876134750E+000	-4,9600241E-001	-4,9584106E-001	-9,853802048698213E-002	1,000000000000000E+000	3,4618244E-004	41	4,8859198E-005
2	0	0	1	0	4,929799875462777E+000	-5,0929552E-001	-5,0910395E-001	-1,011734377262956E-001	1,000000000000000E+000	3,4352424E-004	41	5,1507795E-005
2	0	0	1	0	4,956399874790804E+000	-5,2262205E-001	-5,2240247E-001	-1,038061926762259E-001	1,000000000000000E+000	3,4079596E-004	41	5,4228611E-005
2	0	0	1	0	4,982999874118832E+000	-5,3591514E-001	-5,3567797E-001	-1,064317801928458E-001	1,000000000000000E+000	3,3799768E-004	41	5,7013160E-005
2	0	0	1	0	5,009799873441807E+000	-5,4930830E-001	-5,4906070E-001	-1,090768920509917E-001	1,000000000000000E+000	3,3510779E-004	41	5,9889833E-005
2	0	0	1	0	5,066399872011971E+000	-5,7759374E-001	-5,7738203E-001	-1,145837328377333E-001	1,000000000000000E+000	3,2881397E-004	40	6,6158587E-005
2	0	0	1	0	5,092999871339998E+000	-5,9092027E-001	-5,9071815E-001	-1,172345019799343E-001	1,000000000000000E+000	3,2572870E-004	40	6,9252550E-005
2	0	0	1	0	5,119599870668026E+000	-6,0421342E-001	-6,0398406E-001	-1,198762714203137E-001	1,000000000000000E+000	3,2257327E-004	40	7,2403360E-005
2	0	0	1	0	5,146399869991001E+000	-6,1760652E-001	-6,1741155E-001	-1,225228082970715E-001	1,000000000000000E+000	3,1932362E-004	40	7,5646996E-005
2	0	0	1	0	5,172999869319028E+000	-6,3089967E-001	-6,3069093E-001	-1,251496535415452E-001	1,000000000000000E+000	3,1602822E-004	40	7,8930752E-005
2	0	0	1	0	5,199599868647056E+000	-6,4419287E-001	-6,4393729E-001	-1,277416177967092E-001	1,000000000000000E+000	3,1266274E-004	40	8,2257589E-005
2	0	0	1	0	5,226199867975083E+000	-6,5751940E-001	-6,5728027E-001	-1,303720933986672E-001	1,000000000000000E+000	3,0922759E-004	40	8,5691005E-005
2	0	0	1	0	5,252999867298058E+000	-6,7091250E-001	-6,7071790E-001	-1,330022378145557E-001	1,000000000000000E+000	3,0569575E-004	40	8,9206980E-005
2	0	0	1	0	5,279599866626086E+000	-6,8420571E-001	-6,8398446E-001	-1,356746437648932E-001	1,000000000000000E+000	3,0212000E-004	40	9,2799346E-005
2	0	0	1	0	5,306199865954113E+000	-6,9749880E-001	-6,9727159E-001	-1,382938944462999E-001	1,000000000000000E+000	2,9847419E-004	40	9,6428405E-005
2	0	0	1	0	5,332999865277088E+000	-7,1089190E-001	-7,1070910E-001	-1,409562198697432E-001	1,000000000000000E+000	2,9473015E-004	40	1,0017887E-004
2	0	0	1	0	5,359599864605116E+000	-7,2421843E-001	-7,2402382E-001	-1,435925410517185E-001	1,000000000000000E+000	2,9094398E-004	40	1,0396442E-004
2	0	0	1	0	5,386199863933143E+000	-7,3751163E-001	-7,3729622E-001	-1,461920450422134E-001	1,000000000000000E+000	2,8708737E-004	40	1,0778684E-004
2	0	0	1	0	5,412799863261171E+000	-7,5080478E-001	-7,5061607E-001	-1,488249576262501E-001	1,000000000000000E+000	2,8316109E-004	40	1,1171040E-004
2	0	0	1	0	5,439599862584146E+000	-7,6419789E-001	-7,6397693E-001	-1,514511111464038E-001	1,000000000000000E+000	2,7913493E-004	40	1,1570515E-004
2	0	0	1	0	5,466199861912173E+000	-7,7749103E-001	-7,7725267E-001	-1,541275958433586E-001	1,000000000000000E+000	2,7506839E-004	40	1,1979609E-004
2	0	0	1	0	5,492799861240201E+000	-7,9081756E-001	-7,9057121E-001	-1,567392757046031E-001	1,000000000000000E+000	2,7093195E-004	40	1,2391356E-004
2	0	0	1	0	5,519399860568228E+000	-8,0411071E-001	-8,0387026E-001	-1,593743843259283E-001	1,000000000000000E+000	2,6672555E-004	40	1,2811633E-004
2	0	0	1	0	5,546199859891203E+000	-8,1750375E-001	-8,1731480E-001	-1,620496389766533E-001	1,000000000000000E+000	2,6241661E-004	40	1,3244557E-004
2	0	0	1	0	5,572799859219231E+000	-8,3079690E-001	-8,3058691E-001	-1,646283026920470E-001	1,000000000000000E+000	2,5806989E-004	40	1,3673812E-004
2	0	0	1	0	5,599399858547258E+000	-8,4411234E-001	-8,4389269E-001	-1,672531033478053E-001	1,000000000000000E+000	2,5365371E-004	40	1,4114367E-004
2	0	0	1	0	5,625999857875286E+000	-8,5741669E-001	-8,5718060E-001	-1,698892044310929E-001	1,000000000000000E+000	2,4916767E-004	40	1,4562573E-004
2	0	0	1	0	5,652799857198261E+000	-8,7080979E-001	-8,7059569E-001	-1,725148753282459E-001	1,000000000000000E+000	2,4457698E-004	40	1,5019071E-004
2	0	0	1	0	5,679399856526288E+000	-8,8410288E-001	-8,8387251E-001	-1,751368195400572E-001	1,000000000000000E+000	2,3995052E-004	40	1,5479862E-004
2	0	0	1	0	5,705999855854316E+000	-8,9739603E-001	-8,9720267E-001	-1,777953896516307E-001	1,000000000000000E+000	2,3525416E-004	40	1,5951850E-004
2	0	0	1	0	5,732599855182343E+000	-9,1072255E-001	-9,1055506E-001	-1,804600008996204E-001	1,000000000000000E+000	2,3048780E-004	40	1,6431877E-004
2	0	0	1	0	5,759399854505318E+000	-9,2411566E-001	-9,2390871E-001	-1,830799680416626E-001	1,000000000000000E+000	2,2561492E-004	40	1,6914918E-004
2	0	0	1	0	5,785999853833346E+000	-9,3740880E-001	-9,3716794E-001	-1,857063280011060E-001	1,000000000000000E+000	2,2070821E-004	40	1,7403801E-004
2	0	0	1	0	5,812599853161373E+000	-9,5070195E-001	-9,5046926E-001	-1,883256616691742E-001	1,000000000000000E+000	2,1573117E-004	40	1,7899775E-004
2	0	0	1	0	5,839399852484348E+000	-9,6409512E-001	-9,6383232E-001	-1,909578228776807E-001	1,000000000000000E+000	2,1064638E-004	40	1,8405131E-004
2	0	0	1	0	5,865999851812376E+000	-9,7742164E-001	-9,7718233E-001	-1,935981555240383E-001	1,000000000000000E+000	2,0552926E-004	40	1,8918069E-004
2	0	0	1	0	5,892599851140403E+000	-9,9071485E-001	-9,9048096E-001	-1,962518514075782E-001	1,000000000000000E+000	2,0034192E-004	40	1,9438373E-004
2	0	0	0	1	5,911399850665475E+000	-9,9987650E-001	-9,9964190E-001	-1,979958377778530E-001	1,000000000000000E+000	1,9663399E-004	40	1,9792494E-004
2	0	0	1	1	5,934999850069289E+000	-9,8804957E-001	-9,8782766E-001	-1,946285640122365E-001	1,000000000000000E+000	1,9201341E-004	40	1,9225948E-004
2	0	0	1	1	5,961599849397317E+000	-9,7475624E-001	-9,7452265E-001	-1,919905763546312E-001	1,000000000000000E+000	1,8687338E-004	40	1,8709917E-004
2	0	0	1	1	5,988199848725344E+000	-9,6142983E-001	-9,6118426E-001	-1,893774804523365E-001	1,000000000000000E+000	1,8180363E-004	40	1,8202665E-004
2	0	0	1	1	6,014999848048319E+000	-9,4803679E-001	-9,4779223E-001	-1,867262937555401E-001	1,000000000000000E+000	1,7676619E-004	40	1,7697773E-004
2	0	0	1	1	6,041599847376347E+000	-9,3474352E-001	-9,3452877E-001	-1,840853647270704E-001	1,000000000000000E+000	1,7183645E-004	40	1,7203306E-004
2	0	0	1	1	6,068199846704374E+000	-9,2145038E-001	-9,2122716E-001	-1,814638705594307E-001	1,000000000000000E+000	1,6697700E-004	40	1,6716945E-004
2	0	0	1	1	6,094899846029875E+000	-9,0807903E-001	-9,0787125E-001	-1,788228794888203E-001	1,000000000000000E+000	1,6216935E-004	40	1,6234815E-004
2	0	0	1	1	6,121599845355377E+000	-8,9473081E-001	-8,9452535E-001	-1,761913492984606E-001	1,000000000000000E+000	1,5743195E-004	40	1,5760763E-004
2	0	0	1	1	6,148199844683404E+000	-8,8143760E-001	-8,8120371E-001	-1,735414362939389E-001	1,000000000000000E+000	1,5278287E-004	40	1,5292536E-004
2	0	0	1	1	6,174799844011432E+000	-8,6814451E-001	-8,6790901E-001	-1,709064458884919E-001	1,000000000000000E+000	1,4820376E-004	40	1,4833125E-004
2	0	0	1	1	6,201599843334407E+000	-8,5475129E-001	-8,5454082E-001	-1,682880994883211E-001	1,000000000000000E+000	1,4366044E-004	40	1,4380905E-004
2	0	0	1	1	6,228199842662434E+000	-8,4142488E-001	-8,4118980E-001	-1,656604227474108E-001	1,000000000000000E+000	1,3922132E-004	40	1,3935186E-004
2	0	0	1	1	6,254799841990462E+000	-8,2813168E-001	-8,2796222E-001	-1,630507048723908E-001	1,000000000000000E+000	1,3485174E-004	40	1,3499982E-004
2	0	0	1	1	6,281399841318489E+000	-8,1483865E-001	-8,1463015E-001	-1,604127911520965E-001	1,000000000000000E+000	1,3055220E-004	40	1,3067710E-004
2	0	0	1	1	6,308199840641464E+000	-8,0144542E-001	-8,0117875E-001	-1,577679677187307E-001	1,000000000000000E+000	1,2629088E-004	40	1,2640034E-004
2	0	0	1	1	6,334799839969492E+000	-7,8815228E-001	-7,8792077E-001	-1,551242021804980E-001	1,000000000000000E+000	1,2213177E-004	40	1,2222558E-004
2	0	0	1	1	6,361399839297519E+000	-7,7482581E-001	-7,7457219E-001	-1,524970056081647E-001	1,000000000000000E+000	1,1804261E-004	40	1,1811994E-004
2	0	0	1	1	6,387999838625547E+000	-7,6153260E-001	-7,6127732E-001	-1,498603097143734E-001	1,000000000000000E+000	1,1402321E-004	40	1,1408525E-004
2	0	0	1	1	6,414799837948522E+000	-7,4813938E-001	-7,4793732E-001	-1,472328638405693E-001	1,000000000000000E+000	1,1004417E-004	40	1,1012096E-004
2	0	0	1	1	6,441399837276549E+000	-7,3484623E-001	-7,3462653E-001	-1,445836246886756E-001	1,000000000000000E+000	1,0616527E-004	40	1,0621497E-004
2	0	0	1	1	6,467999836604577E+000	-7,2155315E-001	-7,2127306E-001	-1,419466119841668E-001	1,000000000000000E+000	1,0235617E-004	40	1,0238227E-004
2	0	0	1	1	6,494599835932604E+000	-7,0822662E-001	-7,0800495E-001	-1,393302386296758E-001	1,000000000000000E+000	9,8617202E-005	40	9,8646502E-005
2	0	0	1	1	6,521399835255579E+000	-6,9483346E-001	-6,9458181E-001	-1,366933761203353E-001	1,000000000000000E+000	9,4920564E-005	40	9,4944735E-005
2	0	0	1	1	6,547999834583607E+000	-6,8154031E-001	-6,8129581E-001	-1,340454972620740E-001	1,000000000000000E+000	9,1321876E-005	40	9,1324633E-005
2	0	0	1	1	6,574599833911634E+000	-6,6824722E-001	-6,6801065E-001	-1,314030440194374E-001	1,000000000000000E+000	8,7793604E-005	40	8,7778630E-005
2	0	0	1	1	6,601399833234609E+000	-6,5485406E-001	-6,5461141E-001	-1,287646162595288E-001	1,000000000000000E+000	8,4309315E-005	40	8,4290790E-005
2	0	0	1	1	6,627999832562637E+000	-6,4152753E-001	-6,4129013E-001	-1,261599176718538E-001	1,000000000000000E+000	8,0921251E-005	40	8,0905113E-005
2	0	0	1	1	6,654599831890664E+000	-6,2823445E-001	-6,2798893E-001	-1,235225721863872E-001	1,000000000000000E+000	7,7603057E-005	40	7,7570810E-005
2	0	0	1	1	6,681199831218692E+000	-6,1494118E-001	-6,1470753E-001	-1,208790243254036E-001	1,000000000000000E+000	7,4354655E-005	40	7,4305244E-005
2	0	0	1	1	6,707999830541667E+000	-6,0154808E-001	-6,0128599E-001	-1,182257332237588E-001	1,000000000000000E+000	7,1152412E-005	40	7,1087481E-005
2	0	0	1	1	6,734599829869694E+000	-5,8825487E-001	-5,8801550E-001	-1,156027121508185E-001	1,000000000000000E+000	6,8044217E-005	40	6,7976187E-005
2	0	0	1	1	6,761199829197722E+000	-5,7492846E-001	-5,7473290E-001	-1,129898067854809E-001	1,000000000000000E+000	6,5006279E-005	40	6,4938962E-005
2	0	0	1	1	6,787799828525749E+000	-5,6163532E-001	-5,6144667E-001	-1,103781492468745E-001	1,000000000000000E+000	6,2038038E-005	40	6,1971441E-005
2	0	0	1	1	6,814599827848724E+000	-5,4824215E-001	-5,4800844E-001	-1,076982555910947E-001	1,000000000000000E+000	5,9118200E-005	40	5,9019552E-005
2	0	0	1	1	6,841199827176752E+000	-5,3494900E-001	-5,3470331E-001	-1,050583347969225E-001	1,000000000000000E+000	5,6290621E-005	40	5,6175038E-005
2	0	0	1	1	6,867799826504779E+000	-5,2165586E-001	-5,2140391E-001	-1,024543466298682E-001	1,000000000000000E+000	5,3532753E-005	40	5,3420095E-005
2	0	0	1	1	6,894399825832807E+000	-5,0832933E-001	-5,0808805E-001	-9,979363922417805E-002	1,000000000000000E+000	5,0844916E-005	40	5,0703955E-005
2	0	0	1	1	6,921199825155782E+000	-4,9493629E-001	-4,9468240E-001	-9,716546592826453E-002	1,000000000000000E+000	4,8207738E-005	40	4,8066046E-005
2	0	0	1	1	6,947799824483809E+000	-4,8164308E-001	-4,8140591E-001	-9,451653515764780E-002	1,000000000000000E+000	4,5660363E-005	40	4,5500819E-005
2	0	0	1	1	6,974399823811837E+000	-4,6834993E-001	-4,6815184E-001	-9,192008920266059E-002	1,000000000000000E+000	4,3182947E-005	40	4,3032560E-005
2	0	0	1	1	7,001099823137338E+000	-4,5499009E-001	-4,5474640E-001	-8,926275925979743E-002	1,000000000000000E+000	4,0766539E-005	40	4,0591916E-005
2	0	0	1	1	7,027799822462839E+000	-4,4163033E-001	-4,4139090E-001	-8,662601940935311E-002	1,000000000000000E+000	3,8420734E-005	40	3,8235936E-005
2	0	0	1	1	7,054399821790867E+000	-4,2833713E-001	-4,2809641E-001	-8,398447185754747E-002	1,000000000000000E+000	3,6153571E-005	40	3,5953450E-005
2	0	0	1	1	7,080999821118894E+000	-4,1504398E-001	-4,1480255E-001	-8,137491203669911E-002	1,000000000000000E+000	3,3956097E-005	40	3,3754521E-005
2	0	0	1	1	7,107799820441869E+000	-4,0165085E-001	-4,0142721E-001	-7,872140374674921E-002	1,000000000000000E+000	3,1812750E-005	40	3,1600914E-005
2	0	0	1	1	7,134399819769897E+000	-3,8832438E-001	-3,8810581E-001	-7,610210605004453E-002	1,000000000000000E+000	2,9755554E-005	40	2,9535669E-005
2	0	0	1	1	7,160999819097924E+000	-3,7503120E-001	-3,7478852E-001	-7,348453020094881E-002	1,000000000000000E+000	2,7768683E-005	40	2,7541158E-005
2	0	0	1	1	7,187599818425952E+000	-3,6173806E-001	-3,6150157E-001	-7,085902197092436E-002	1,000000000000000E+000	2,5851503E-005	40	2,5615647E-005
2	0	0	1	1	7,214399817748927E+000	-3,4834489E-001	-3,4811983E-001	-6,819364402229733E-002	1,000000000000000E+000	2,3990558E-005	40	2,3739560E-005
2	0	0	1	1	7,240999817076954E+000	-3,3505175E-001	-3,3475667E-001	-6,554515522827065E-002	1,000000000000000E+000	2,2213944E-005	40	2,1941678E-005
2	0	0	1	1	7,267599816404982E+000	-3,2172528E-001	-3,2148036E-001	-6,292115311856239E-002	1,000000000000000E+000	2,0507563E-005	40	2,0227915E-005
2	0	0	1	1	7,294199815733009E+000	-3,0843207E-001	-3,0823123E-001	-6,031359052285534E-002	1,000000000000000E+000	1,8870944E-005	40	1,8590532E-005
2	0	0	1	1	7,320999815055984E+000	-2,9503897E-001	-2,9476428E-001	-5,764903736805249E-002	1,000000000000000E+000	1,7292574E-005	40	1,6992877E-005
2	0	0	1	1	7,347599814384012E+000	-2,8174579E-001	-2,8149578E-001	-5,501669291406869E-002	1,000000000000000E+000	1,5796559E-005	40	1,5486967E-005
2	0	0	1	1	7,374199813712039E+000	-2,6845261E-001	-2,6822922E-001	-5,238774989654005E-002	1,000000000000000E+000	1,4370416E-005	40	1,4051925E-005
2	0	0	1	1	7,400799813040067E+000	-2,5512615E-001	-2,5485161E-001	-4,976370554844214E-002	1,000000000000000E+000	1,3013984E-005	40	1,2682361E-005
2	0	0	1	1	7,427599812363042E+000	-2,4173301E-001	-2,4150699E-001	-4,709931582619908E-002	1,000000000000000E+000	1,1717999E-005	40	1,1374814E-005
2	0	0	1	1	7,454199811691069E+000	-2,2843984E-001	-2,2820278E-001	-4,449656061333362E-002	1,000000000000000E+000	1,0501728E-005	40	1,0154238E-005
2	0	0	1	1	7,480799811019097E+000	-2,1514669E-001	-2,1492501E-001	-4,185702453396489E-002	1,000000000000000E+000	9,3551862E-006	40	8,9961213E-006
2	0	0	1	1	7,507599810342072E+000	-2,0175357E-001	-2,0157370E-001	-3,924682698949852E-002	1,000000000000000E+000	8,2707047E-006	40	7,9111278E-006
2	0	0	1	1	7,534199809670099E+000	-1,8842708E-001	-1,8818901E-001	-3,660346880254406E-002	1,000000000000000E+000	7,2647408E-006	40	6,8883705E-006
2	0	0	1	1	7,590799808240263E+000	-1,6014160E-001	-1,5995988E-001	-3,106267457430167E-002	1,000000000000000E+000	5,2968953E-006	41	4,9687819E-006
2	0	0	1	1	7,617399807568290E+000	-1,4684844E-001	-1,4665891E-001	-2,843959883369585E-002	1,000000000000000E+000	4,5076163E-006	41	4,1709204E-006
2	0	0	1	1	7,644199806891265E+000	-1,3345534E-001	-1,3324927E-001	-2,579170390332974E-002	1,000000000000000E+000	3,7830273E-006	41	3,4367256E-006
2	0	0	1	1	7,670799806219293E+000	-1,2012884E-001	-1,1989563E-001	-2,314996419227100E-002	1,000000000000000E+000	3,1342986E-006	41	2,7755796E-006
2	0	0	1	1	7,697399805547320E+000	-1,0683568E-001	-1,0660853E-001	-2,052388539280700E-002	1,000000000000000E+000	2,5555294E-006	41	2,1880212E-006
2	0	0	1	1	7,723999804875348E+000	-9,3542509E-002	-9,3272597E-002	-1,790112417147607E-002	1,000000000000000E+000	2,0466312E-006	41	1,6696844E-006
2	0	0	1	1	7,750799804198323E+000	-8,0149397E-002	-7,9925597E-002	-1,525010006347052E-002	1,000000000000000E+000	1,6044735E-006	41	1,2188733E-006
2	0	0	1	1	7,777399803526350E+000	-6,6845119E-002	-6,6623881E-002	-1,262466971687291E-002	1,000000000000000E+000	1,2357284E-006	41	8,4110451E-007
2	0	0	1	1	7,803999802854378E+000	-5,3529739E-002	-5,3295501E-002	-9,995913865714065E-003	1,000000000000000E+000	9,3699435E-007	41	5,3273726E-007
2	0	0	1	1	7,830599802182405E+000	-4,0236562E-002	-3,9998092E-002	-7,358146907184469E-003	1,000000000000000E+000	7,0814610E-007	41	2,9431183E-007
2	0	0	1	1	7,857399801505380E+000	-2,6843451E-002	-2,6614036E-002	-4,714069095462042E-003	1,000000000000000E+000	5,4845401E-007	41	1,2546040E-007
2	0	0	1	1	7,883999800833408E+000	-1,3550282E-002	-1,3302387E-002	-2,083308942716636E-003	1,000000000000000E+000	4,6003487E-007	41	2,7712982E-008
2	1	0	1	1	7,908899800204381E+000	-1,0951430E-003	-9,3008264E-004	3,696476521257040E-004	1,000000000000000E+000	4,4023696E-007	41	-3,4380288E-010
2	1	0	0	1	7,910999800151330E+000	5,7214929E-005	1,6183381E-004	5,830529262311757E-004	1,000000000000000E+000	4,4133265E-007	41	9,4357681E-011