File: biologic_dataset_with_loop/dataset_with_loop_01_02_CVA_DUSB0_C01.mpt
EC-Lab ASCII FILE
Nb header lines : 74

Cyclic Voltammetry Advanced

Run on channel : 1 (SN 5836)
User :
Electrode connection : standard
Ewe ctrl range : min = -5.00 V, max = 5.00 V
Ewe,I filtering : 50 kHz
Safety Limits :
	Do not start on E overload
Channel : Grounded
Acquisition started on : 06/24/2022 13:13:57
Technique started on : 06/24/2022 13:14:08
Saved on :
	File : 2022-06-24 13_13_40 5_EC_measurements_with_loop_01_02_CVA_DUSB0_C01.mpr
	Directory : C:\Users\Spectro Inlets Lab_1\Dropbox (Spectro Inlets)\Development\Data\Kenneth reduced data\2022-06-24 13_13_40 5_EC_measurements_with_loop\
	Host : 192.168.50.150
Device : SP-200 (SN 0763)
Address : USB
EC-Lab for windows v11.27 (software)
Internet server v11.25 (firmware)
Command interpretor v11.27 (firmware)
Electrode material :
Initial state :
Electrolyte :
Comments :
Cable : standard
Electrode surface area : 0.001 cm²
Characteristic mass : 0.001 g
Equivalent Weight : 0.000 g/eq.
Density : 0.000 g/cm3
Record Ece
Text export
   Mode : Standard
   Time format : Elapsed
Cycle Definition : Charge/Discharge alternance
Ei (V)              0.000
vs.                 Eoc
ti (h:m:s)          0:00:10.0000
dti (s)             1.0000
dE/dt               20.000
dE/dt unit          mV/s
E1 (V)              1.000
vs.                 Ref
t1 (h:m:s)          0:00:0.0000
dt1 (s)             0.1000
Step percent        80
N                   50
E range min (V)     -5.000
E range max (V)     5.000
I Range             1 mA
I Range min         Unset
I Range max         Unset
I Range init        Unset
Bandwidth           1
E2 (V)              0.700
vs.                 Ref
t2 (h:m:s)          0:00:0.0000
dt2 (s)             0.1000
nc cycles           0
nr                  1
Reverse Scan        1
Ef (V)              0.000
vs.                 Eoc
tf (h:m:s)          0:00:0.0000
dtf (s)             0.1000

Number of loops : 2
Loop 0 from point number 0 to 76
Loop 1 from point number 77 to 153

mode	ox/red	error	control changes	Ns changes	counter inc.	time/s	control/V	Ewe/V	<I>/mA	cycle number	(Q-Qo)/C	I Range	<Ece>/V	P/W	Ewe-Ece/V
2	1	0	1	0	0	11.0006	0.854303	0.854306	0.000368149	1	0.0000000E+000	40	1.04874	3.14512e-07	-0.194437
2	1	0	1	0	0	12.0006	0.854303	0.854382	7.34061e-05	1	7.34061e-08	40	1.05225	6.27168e-08	-0.197868
2	0	0	1	0	0	13.0006	0.854303	0.854405	7.65502e-05	1	1.49956e-07	40	1.052	6.54049e-08	-0.197598
2	1	0	1	0	0	14.0006	0.854303	0.854386	7.79427e-05	1	2.27899e-07	40	1.05176	6.65932e-08	-0.197378
2	1	0	1	0	0	15.0006	0.854303	0.854371	8.2019e-05	1	3.09918e-07	40	1.05152	7.00746e-08	-0.197145
2	0	0	1	0	0	16.0006	0.854303	0.854363	8.30647e-05	1	3.92983e-07	40	1.05128	7.09674e-08	-0.196916
2	0	0	1	0	0	17.0006	0.854303	0.854363	8.35568e-05	1	4.76539e-07	40	1.05104	7.13878e-08	-0.196674
2	1	0	1	0	0	18.0006	0.854303	0.854359	8.28503e-05	1	5.5939e-07	40	1.05079	7.07839e-08	-0.196435
2	0	0	1	0	0	19.0006	0.854303	0.854355	8.16921e-05	1	6.41082e-07	40	1.05053	6.97941e-08	-0.196171
2	0	0	1	0	0	20.0006	0.854303	0.854325	7.98614e-05	1	7.20943e-07	40	1.0503	6.82276e-08	-0.195979
2	1	0	1	0	0	21.0104	0.854303	0.854397	7.85062e-05	1	8.00219e-07	40	1.05005	6.70755e-08	-0.195651
2	1	0	1	0	0	21.2653	0.859398	0.859404	1.20498e-05	1	8.82461e-07	40	1.05002	1.03556e-08	-0.19062
2	1	0	0	0	0	21.7651	0.869394	0.869414	0.000116328	1	1.06232e-06	40	1.04732	1.01137e-07	-0.177909
2	0	0	1	0	0	22.2649	0.87939	0.879448	0.000249465	1	1.26996e-06	40	1.04403	2.19391e-07	-0.164582
2	0	0	0	0	0	22.7646	0.889384	0.889455	0.000354661	1	1.50245e-06	40	1.04093	3.15455e-07	-0.151473
2	0	0	0	0	0	23.2643	0.899378	0.899456	0.000422124	1	1.76058e-06	40	1.03804	3.79682e-07	-0.138583
2	0	0	1	0	0	23.7641	0.909374	0.909456	0.000485317	1	2.04684e-06	40	1.03509	4.41375e-07	-0.12563
2	0	0	0	0	0	24.2639	0.91937	0.919436	0.000536523	1	2.36394e-06	40	1.032	4.93299e-07	-0.112559
2	1	0	0	0	0	24.7635	0.929362	0.92942	0.000596941	1	2.71532e-06	40	1.02852	5.54809e-07	-0.0991047
2	1	0	1	0	0	25.2633	0.939358	0.939411	0.000658598	1	3.10664e-06	40	1.02474	6.18694e-07	-0.0853276
2	1	0	0	0	0	25.7631	0.949354	0.949409	0.000745053	1	3.54373e-06	40	1.02031	7.0736e-07	-0.0709045
2	1	0	1	0	0	26.2628	0.959348	0.959402	0.000853545	1	4.0341e-06	40	1.01521	8.18893e-07	-0.0558031
2	1	0	1	0	0	26.7625	0.969342	0.969398	0.00099948	1	4.58637e-06	40	1.00925	9.68894e-07	-0.0398512
2	1	0	0	0	0	27.2623	0.979338	0.979392	0.00116777	1	5.21157e-06	40	1.00255	1.1437e-06	-0.023156
2	1	0	1	0	0	27.7621	0.989334	0.989391	0.00135992	1	5.9218e-06	40	0.994995	1.3455e-06	-0.00560397
2	1	0	0	0	0	28.1519	0.997131	0.997194	0.0015146	1	6.53276e-06	40	0.988651	1.51035e-06	0.00854331
2	1	0	0	0	0	28.2906	1.00003	1.00003	0.00255616	1	6.76443e-06	40	0.974525	2.55625e-06	0.0255101
2	1	0	0	0	0	28.3006	0.999828	0.999882	0.00122169	1	6.77566e-06	40	0.990539	1.22154e-06	0.00934315
2	1	0	0	0	0	28.5555	0.99473	0.994774	0.000599631	1	6.89201e-06	40	0.997985	5.96498e-07	-0.00321048
2	1	0	0	0	0	29.0553	0.984734	0.984778	0.000232537	1	7.01836e-06	40	1.00337	2.28997e-07	-0.0185952
2	1	0	0	0	0	29.555	0.97474	0.974778	9.86145e-05	1	7.01648e-06	40	1.00662	9.61273e-08	-0.0318413
2	0	0	1	0	0	30.0547	0.964746	0.964802	2.34888e-05	1	6.95668e-06	40	1.00935	2.26621e-08	-0.0445458
2	0	0	1	0	0	30.5545	0.95475	0.954805	-3.25886e-05	1	6.86343e-06	40	1.01192	-3.11158e-08	-0.0571198
2	0	0	1	0	0	31.0542	0.944756	0.944804	-7.99615e-05	1	6.7491e-06	40	1.01438	-7.55479e-08	-0.0695809
2	1	0	0	0	0	31.5539	0.934762	0.934807	-0.000117925	1	6.62065e-06	40	1.0168	-1.10237e-07	-0.0819903
2	1	0	0	0	0	32.0537	0.924766	0.924796	-0.00014751	1	6.48251e-06	40	1.01911	-1.36417e-07	-0.0943187
2	1	0	0	0	0	32.5535	0.91477	0.914816	-0.0001698	1	6.33683e-06	40	1.02123	-1.55336e-07	-0.106415
2	1	0	0	0	0	33.0532	0.904776	0.904806	-0.000190893	1	6.18424e-06	40	1.02338	-1.72721e-07	-0.118573
2	1	0	1	0	0	33.5529	0.894782	0.894828	-0.000210452	1	6.02605e-06	40	1.02547	-1.88318e-07	-0.130645
2	1	0	1	0	0	34.0527	0.884786	0.884822	-0.000219341	1	5.86177e-06	40	1.02743	-1.94077e-07	-0.142609
2	1	0	1	0	0	34.5525	0.87479	0.874825	-0.000214535	1	5.69168e-06	40	1.02933	-1.87681e-07	-0.1545
2	1	0	0	0	0	35.0521	0.864798	0.864837	-0.000209873	1	5.5155e-06	40	1.03121	-1.81506e-07	-0.166373
2	1	0	0	0	0	35.5519	0.854802	0.854856	-0.000207195	1	5.33085e-06	40	1.03313	-1.77122e-07	-0.178275
2	1	0	0	0	0	36.0517	0.844806	0.844868	-0.000207076	1	5.13434e-06	40	1.03514	-1.74952e-07	-0.190271
2	1	0	0	0	0	36.5514	0.834812	0.834883	-0.000211641	1	4.92401e-06	40	1.03726	-1.76696e-07	-0.20238
2	0	0	1	0	0	37.0511	0.824818	0.824907	-0.000226103	1	4.69609e-06	40	1.03971	-1.86514e-07	-0.2148
2	0	0	1	0	0	37.5509	0.814822	0.814907	-0.000248968	1	4.44755e-06	40	1.04238	-2.02886e-07	-0.227469
2	0	0	1	0	0	38.0507	0.804826	0.804912	-0.000294701	1	4.17519e-06	40	1.04555	-2.37208e-07	-0.24064
2	0	0	1	0	0	38.5504	0.794832	0.794915	-0.00034286	1	3.87486e-06	40	1.04896	-2.72545e-07	-0.254047
2	0	0	0	0	0	39.0501	0.784838	0.784918	-0.000403896	1	3.54384e-06	40	1.05283	-3.17025e-07	-0.267909
2	0	0	0	0	0	39.5499	0.774842	0.774917	-0.00047173	1	3.17843e-06	40	1.0571	-3.65551e-07	-0.282187
2	0	0	0	0	0	40.0496	0.764848	0.764937	-0.000551477	1	2.77734e-06	40	1.0618	-4.21845e-07	-0.296859
2	0	0	1	0	0	40.5493	0.754854	0.754961	-0.000616118	1	2.338e-06	40	1.0666	-4.65145e-07	-0.311637
2	0	0	1	0	0	41.0491	0.744858	0.744957	-0.000692974	1	1.85936e-06	40	1.07181	-5.16236e-07	-0.326851
2	0	0	1	0	0	41.5489	0.734862	0.734976	-0.000762345	1	1.34277e-06	40	1.07729	-5.60306e-07	-0.34231
2	0	0	1	0	0	42.0486	0.724868	0.724979	-0.000844381	1	7.89446e-07	40	1.08318	-6.12159e-07	-0.358205
2	0	0	0	0	0	42.5483	0.714874	0.714978	-0.000913668	1	2.01619e-07	40	1.08915	-6.53253e-07	-0.374175
2	0	0	0	0	0	43.0431	0.704978	0.705078	-0.000990879	1	-4.11072e-07	40	1.09535	-6.98647e-07	-0.390271
2	1	0	0	0	0	43.2872	0.699982	0.700046	0.00367437	1	-7.18946e-07	40	1.04129	2.57223e-06	-0.341241
2	1	0	0	0	1	43.2972	0.700181	0.700218	-0.00122461	1	-7.29324e-07	40	1.10084	-8.57497e-07	-0.40062
2	1	0	0	0	1	43.5521	0.705278	0.705296	-0.000871761	1	-8.93907e-07	40	1.09781	-6.1485e-07	-0.392516
2	1	0	1	0	1	44.0519	0.715274	0.715306	-0.000574441	1	-1.14444e-06	40	1.09569	-4.10901e-07	-0.38038
2	1	0	0	0	1	44.5516	0.725268	0.725307	-0.000400509	1	-1.29071e-06	40	1.09422	-2.90492e-07	-0.368917
2	1	0	0	0	1	45.0513	0.735262	0.735307	-0.000288347	1	-1.37179e-06	40	1.093	-2.12024e-07	-0.357693
2	1	0	1	0	1	45.5511	0.745258	0.745301	-0.000195272	1	-1.40252e-06	40	1.09164	-1.45536e-07	-0.346337
2	1	0	0	0	1	46.0508	0.755252	0.755302	-0.000130352	1	-1.39213e-06	40	1.09031	-9.84551e-08	-0.33501
2	1	0	0	0	1	46.5505	0.765246	0.765284	-7.21687e-05	1	-1.346e-06	40	1.0888	-5.52295e-08	-0.323513
2	1	0	1	0	1	47.0503	0.775242	0.775261	-3.14452e-05	1	-1.26805e-06	40	1.08724	-2.43782e-08	-0.311979
2	1	0	0	0	1	47.5501	0.785238	0.78524	2.54798e-06	1	-1.16005e-06	40	1.08563	2.00078e-09	-0.300394
2	1	0	1	0	1	48.0498	0.795232	0.795232	2.35463e-05	1	-1.02489e-06	40	1.0839	1.87248e-08	-0.288671
2	1	0	1	0	1	48.5495	0.805226	0.805233	5.37638e-05	1	-8.65238e-07	40	1.08188	4.32924e-08	-0.276648
2	1	0	0	0	1	49.0493	0.815222	0.815229	8.74574e-05	1	-6.82012e-07	40	1.07964	7.12978e-08	-0.264412
2	1	0	1	0	1	49.5491	0.825218	0.825239	0.000158462	1	-4.76633e-07	40	1.07686	1.30769e-07	-0.251624
2	1	0	0	0	1	50.0488	0.835212	0.835254	0.000247273	1	-2.52235e-07	40	1.07365	2.06536e-07	-0.238394
2	0	0	0	0	1	50.5485	0.845206	0.845267	0.000325436	1	-9.46604e-09	40	1.07042	2.75081e-07	-0.225151
2	0	0	1	0	1	50.8983	0.852202	0.852277	0.000375482	1	1.69737e-07	40	1.06817	3.20015e-07	-0.215891
2	0	0	1	0	1	50.9946	0.854303	0.854466	0.00321923	1	2.25007e-07	40	1.03301	2.75072e-06	-0.17854
2	1	0	1	0	0	62.147	0.853703	0.853759	0.000890374	2	0.0000000E+000	40	1.05572	7.60165e-07	-0.201959
2	0	0	1	0	0	63.147	0.853703	0.853717	0.000119418	2	1.19418e-07	40	1.06461	1.01949e-07	-0.210892
2	1	0	1	0	0	64.147	0.853703	0.853786	0.000113588	2	2.33006e-07	40	1.06403	9.69795e-08	-0.210243
2	0	0	1	0	0	65.147	0.853703	0.853752	0.000107932	2	3.40938e-07	40	1.06345	9.21471e-08	-0.209698
2	0	0	1	0	0	66.147	0.853703	0.853752	0.000103671	2	4.44609e-07	40	1.06288	8.85091e-08	-0.209129
2	1	0	1	0	0	67.147	0.853703	0.853778	0.000103179	2	5.47788e-07	40	1.06236	8.80924e-08	-0.208584
2	1	0	1	0	0	68.147	0.853703	0.853809	0.000104386	2	6.52174e-07	40	1.06184	8.91256e-08	-0.208032
2	0	0	1	0	0	69.147	0.853703	0.853771	0.000100023	2	7.52197e-07	40	1.06132	8.53969e-08	-0.207554
2	1	0	1	0	0	70.147	0.853703	0.85371	9.51778e-05	2	8.47375e-07	40	1.06085	8.12542e-08	-0.207144
2	1	0	1	0	0	71.147	0.853703	0.853786	9.56638e-05	2	9.43039e-07	40	1.06035	8.16764e-08	-0.206569
2	0	0	1	0	0	72.1568	0.853703	0.853817	9.40887e-05	2	1.03805e-06	40	1.0599	8.03345e-08	-0.206082
2	1	0	1	0	0	72.4117	0.858799	0.858836	0.000100119	2	1.12743e-06	40	1.05878	8.59861e-08	-0.19994
2	0	0	0	0	0	72.9115	0.868794	0.868847	0.000232337	2	1.32229e-06	40	1.05544	2.01865e-07	-0.186593
2	0	0	1	0	0	73.4113	0.87879	0.87886	0.0003369	2	1.54852e-06	40	1.05222	2.96088e-07	-0.173358
2	0	0	0	0	0	73.911	0.888784	0.888865	0.000410269	2	1.80225e-06	40	1.04909	3.64674e-07	-0.160228
2	0	0	0	0	0	74.4107	0.898778	0.898862	0.000469297	2	2.08309e-06	40	1.04593	4.21834e-07	-0.147067
2	0	0	1	0	0	74.9105	0.908774	0.908857	0.000529403	2	2.39395e-06	40	1.04249	4.81151e-07	-0.13363
2	1	0	0	0	0	75.4102	0.918768	0.918844	0.00058402	2	2.73717e-06	40	1.03894	5.36623e-07	-0.120091
2	1	0	0	0	0	75.9099	0.928763	0.928837	0.00063797	2	3.11513e-06	40	1.03511	5.9257e-07	-0.106273
2	1	0	1	0	0	76.4097	0.938758	0.938824	0.000699712	2	3.53046e-06	40	1.03085	6.56907e-07	-0.0920229
2	1	0	0	0	0	76.9095	0.948754	0.948816	0.000775564	2	3.98655e-06	40	1.02606	7.35867e-07	-0.0772456
2	1	0	1	0	0	77.4092	0.958748	0.958799	0.000872257	2	4.48893e-06	40	1.02076	8.36319e-07	-0.0619618
2	1	0	1	0	0	77.9089	0.968742	0.968803	0.000990848	2	5.04367e-06	40	1.01479	9.59936e-07	-0.0459884
2	1	0	0	0	0	78.4087	0.978738	0.978793	0.00113362	2	5.65893e-06	40	1.00811	1.10958e-06	-0.0293159
2	1	0	1	0	0	78.9085	0.988734	0.988796	0.00129029	2	6.34499e-06	40	1.00074	1.27583e-06	-0.0119483
2	1	0	0	0	0	79.3133	0.996831	0.996896	0.00144041	2	6.95347e-06	40	0.994135	1.43594e-06	0.00276035
2	1	0	1	0	0	79.4668	1.00003	1.0001	0.0019431	2	7.19833e-06	40	0.986619	1.9433e-06	0.013484
2	1	0	1	0	0	79.4768	0.999828	0.999863	0.00121577	2	7.20935e-06	40	0.994945	1.2156e-06	0.00491798
2	1	0	1	0	0	79.7317	0.99473	0.994787	0.000554562	2	7.31381e-06	40	1.00273	5.5167e-07	-0.00794822
2	1	0	1	0	0	80.2315	0.984734	0.98479	0.000213246	2	7.42249e-06	40	1.00762	2.10003e-07	-0.0228347
2	0	0	1	0	0	80.7312	0.97474	0.97481	7.58969e-05	2	7.40812e-06	40	1.01065	7.39851e-08	-0.0358412
2	0	0	0	0	0	81.2309	0.964746	0.964828	4.23095e-07	2	7.33679e-06	40	1.0133	4.08214e-10	-0.0484721
2	0	0	0	0	0	81.7307	0.95475	0.954834	-5.7191e-05	2	7.23286e-06	40	1.01579	-5.4608e-08	-0.0609549
2	0	0	0	0	0	82.2305	0.944754	0.944828	-9.8415e-05	2	7.1075e-06	40	1.01812	-9.29852e-08	-0.0732943
2	0	0	0	0	0	82.7302	0.93476	0.934834	-0.000140609	2	6.96747e-06	40	1.02046	-1.31446e-07	-0.0856284
2	1	0	1	0	0	83.2299	0.924766	0.924826	-0.00017031	2	6.81612e-06	40	1.02267	-1.57508e-07	-0.0978475
2	1	0	1	0	0	83.7297	0.91477	0.914836	-0.000195718	2	6.65656e-06	40	1.02495	-1.7905e-07	-0.110109
2	1	0	1	0	0	84.2294	0.904776	0.904837	-0.000215408	2	6.49171e-06	40	1.02709	-1.94909e-07	-0.122255
2	1	0	0	0	0	84.7291	0.894782	0.894843	-0.000233202	2	6.32014e-06	40	1.02922	-2.08679e-07	-0.134375
2	1	0	0	0	0	85.2289	0.884786	0.884837	-0.000246662	2	6.14116e-06	40	1.03132	-2.18256e-07	-0.146482
2	1	0	0	0	0	85.7287	0.87479	0.87484	-0.000253093	2	5.95545e-06	40	1.03335	-2.21416e-07	-0.158507
2	1	0	0	0	0	86.2284	0.864796	0.864854	-0.000262555	2	5.76249e-06	40	1.03546	-2.27072e-07	-0.170603
2	1	0	1	0	0	86.7281	0.854802	0.854872	-0.000253381	2	5.56202e-06	40	1.0374	-2.16608e-07	-0.182526
2	1	0	1	0	0	87.2279	0.844806	0.844894	-0.000248249	2	5.35157e-06	40	1.03943	-2.09744e-07	-0.194532
2	1	0	1	0	0	87.7276	0.834812	0.834901	-0.000246587	2	5.12666e-06	40	1.04159	-2.05875e-07	-0.20669
2	0	0	0	0	0	88.2273	0.824818	0.824909	-0.000243241	2	4.88881e-06	40	1.044	-2.00651e-07	-0.219089
2	0	0	0	0	0	88.7271	0.814822	0.814913	-0.000264129	2	4.63483e-06	40	1.04664	-2.15242e-07	-0.231723
2	0	0	0	0	0	89.2269	0.804826	0.804917	-0.000292402	2	4.35805e-06	40	1.04956	-2.35359e-07	-0.244643
2	0	0	0	0	0	89.7266	0.794832	0.794927	-0.000330825	2	4.05777e-06	40	1.05283	-2.62981e-07	-0.257898
2	0	0	1	0	0	90.2263	0.784838	0.784923	-0.000394845	2	3.73076e-06	40	1.05663	-3.09923e-07	-0.271711
2	0	0	1	0	0	90.7261	0.774842	0.774918	-0.00045235	2	3.37534e-06	40	1.06068	-3.50534e-07	-0.285766
2	0	0	1	0	0	91.2259	0.764846	0.764951	-0.000512739	2	2.99039e-06	40	1.06494	-3.9222e-07	-0.299991
2	0	0	1	0	0	91.7256	0.754852	0.754964	-0.000591849	2	2.57446e-06	40	1.06968	-4.46825e-07	-0.314717
2	0	0	0	0	0	92.2253	0.744858	0.744962	-0.000663501	2	2.12531e-06	40	1.07458	-4.94282e-07	-0.329621
2	0	0	0	0	0	92.7251	0.734862	0.734966	-0.000745088	2	1.64425e-06	40	1.07986	-5.47615e-07	-0.344891
2	0	0	0	0	0	93.2248	0.724869	0.724963	-0.00080052	2	1.13274e-06	40	1.08505	-5.80347e-07	-0.360084
2	0	0	1	0	0	93.7245	0.714874	0.714963	-0.000884794	2	5.90419e-07	40	1.09088	-6.32596e-07	-0.37592
2	0	0	1	0	0	94.2193	0.704978	0.705073	-0.000943871	2	2.38651e-08	40	1.09655	-6.65498e-07	-0.391479
2	1	0	1	0	0	94.4634	0.699982	0.700054	0.00413584	2	-2.6092e-07	40	1.0373	2.89531e-06	-0.337248
2	0	0	1	0	1	94.4734	0.700181	0.700264	-0.00114191	2	-2.70961e-07	40	1.10141	-7.99639e-07	-0.401145
2	1	0	1	0	1	94.7283	0.705278	0.70532	-0.000781542	2	-4.20842e-07	40	1.09817	-5.51237e-07	-0.392853
2	1	0	0	0	1	95.228	0.715272	0.715316	-0.000512095	2	-6.49592e-07	40	1.09628	-3.6631e-07	-0.380961
2	1	0	0	0	1	95.7277	0.725267	0.725328	-0.000352777	2	-7.83271e-07	40	1.09495	-2.55879e-07	-0.369621
2	1	0	1	0	1	96.2275	0.735262	0.735321	-0.000250927	2	-8.56956e-07	40	1.09379	-1.84512e-07	-0.35847
2	1	0	0	0	1	96.7273	0.745258	0.745324	-0.000164618	2	-8.84033e-07	40	1.09245	-1.22694e-07	-0.347131
2	1	0	1	0	1	97.227	0.755252	0.755317	-0.000101	2	-8.71803e-07	40	1.09115	-7.62869e-08	-0.33583
2	1	0	1	0	1	97.7267	0.765247	0.765292	-4.0361e-05	2	-8.24388e-07	40	1.08968	-3.08879e-08	-0.324389
2	1	0	0	0	1	98.2265	0.775242	0.775265	-8.40054e-06	2	-7.46078e-07	40	1.08824	-6.51265e-09	-0.312973
2	1	0	1	0	1	98.7263	0.785238	0.785258	2.8142e-05	2	-6.39557e-07	40	1.08654	2.20987e-08	-0.301286
2	1	0	0	0	1	99.226	0.795232	0.795246	4.79006e-05	2	-5.07473e-07	40	1.08474	3.80928e-08	-0.289494
2	1	0	0	0	1	99.7257	0.805227	0.805239	5.92585e-05	2	-3.5182e-07	40	1.08299	4.77173e-08	-0.277752
2	1	0	1	0	1	100.225	0.815222	0.81523	8.43493e-05	2	-1.74082e-07	40	1.08087	6.87641e-08	-0.265636
2	1	0	0	0	1	100.725	0.825216	0.825236	0.000132494	2	2.55571e-08	40	1.07825	1.09339e-07	-0.253012
2	1	0	0	0	1	101.225	0.835211	0.835269	0.000218589	2	2.44899e-07	40	1.07511	1.82581e-07	-0.239843
2	0	0	1	0	1	101.725	0.845206	0.845275	0.000298658	2	4.8428e-07	40	1.07192	2.52448e-07	-0.226646
2	0	0	0	0	1	102.059	0.851902	0.851984	0.000348014	2	6.53183e-07	40	1.06972	2.96503e-07	-0.217737
2	0	0	1	0	1	102.146	0.853703	0.853866	0.000645708	2	7.00785e-07	40	1.06564	5.51348e-07	-0.211777