File: zilien_version_2/2022-09-19 11_31_19 test-3/2022-09-19 11_31_19 test-23_01_C01.mpt
EC-Lab ASCII FILE
Nb header lines : 63

Cyclic Voltammetry

Run on channel : 1 (SN 15565)
User :
Electrode connection : standard
Potential control : Ewe
Ewe ctrl range : min = -10,00 V, max = 10,00 V
Ewe,I filtering : <None>
Safety Limits :
	Do not start on E overload
Channel : Grounded
Acquisition started on : 09/19/2022 11:31:25.688
Technique started on : 09/19/2022 11:31:25.688
Loaded Setting File :  NONE
Saved on :
	File : 2022-09-19 11_31_19 test-23_01_C01.mpr
	Directory : C:\Users\Spectro\Spectro Inlets Dropbox\08 Development\Data\eclab-integration\2022-09-19 11_31_19 test-23\
	Host : 192.168.56.1
Device : SP-300 (SN 1920)
Address : USB
EC-Lab for windows v11.43 (software)
Internet server v11.40 (firmware)
Command interpretor v11.43 (firmware)
Electrode material :
Initial state :
Electrolyte :
Comments :
Cable : standard
Electrode surface area : 0,001 cm²
Characteristic mass : 0,001 g
Equivalent Weight : 0,000 g/eq.
Density : 0,000 g/cm3
Volume (V) : 0,001 cm³
Text export
   Mode : Standard
   Time format : Elapsed
Cycle Definition : Charge/Discharge alternance
Ei (V)              0,000
vs.                 Eoc
dE/dt               500,000
dE/dt unit          mV/s
E1 (V)              1,000
vs.                 Ref
Step percent        50
N                   10
E range min (V)     -10,000
E range max (V)     10,000
I Range             Auto
I Range min         Unset
I Range max         Unset
I Range init        Unset
Bandwidth           8
E2 (V)              -1,000
vs.                 Ref
nc cycles           0
Reverse Scan        1
Ef (V)              0,000
vs.                 Eoc

mode	ox/red	error	control changes	counter inc.	time/s	control/V	Ewe/V	<I>/mA	cycle number	(Q-Qo)/C	I Range	P/W
2	1	0	0	0	0,000000000000000E+000	4,4586502E-002	4,4827268E-002	9,413254447281361E-003	1,000000000000000E+000	0,0000000E+000	42	4,2197047E-007
2	1	0	1	0	5,359999864595011E-002	7,1372718E-002	7,1626134E-002	1,471264043041937E-002	1,000000000000000E+000	6,0679162E-007	41	1,0538096E-006
2	1	0	1	0	8,039999796892516E-002	8,4765814E-002	8,5007764E-002	1,735289155355224E-002	1,000000000000000E+000	1,0385685E-006	41	1,4751305E-006
2	1	0	1	0	1,069999972969526E-001	9,8058984E-002	9,8314822E-002	1,998272210403237E-002	1,000000000000000E+000	1,5372260E-006	41	1,9645977E-006
2	1	0	1	0	1,335999966249801E-001	1,1135215E-001	1,1154980E-001	2,261428799780940E-002	1,000000000000000E+000	2,1057892E-006	41	2,5226193E-006
2	1	0	1	0	1,603999959479552E-001	1,2474526E-001	1,2498758E-001	2,525223669532961E-002	1,000000000000000E+000	2,7491778E-006	41	3,1562161E-006
2	1	0	1	0	1,869999952759827E-001	1,3807175E-001	1,3839905E-001	2,789827491457514E-002	1,000000000000000E+000	3,4583156E-006	41	3,8610947E-006
2	1	0	1	0	2,135999946040101E-001	1,5136491E-001	1,5160209E-001	3,052305311575776E-002	1,000000000000000E+000	4,2373372E-006	41	4,6273585E-006
2	1	0	1	0	2,401999939320376E-001	1,6465805E-001	1,6491692E-001	3,314698054552245E-002	1,000000000000000E+000	5,0862368E-006	41	5,4664979E-006
2	1	0	1	0	2,669999932550127E-001	1,7805117E-001	1,7833777E-001	3,579748359091667E-002	1,000000000000000E+000	6,0121424E-006	41	6,3840434E-006
2	1	0	1	0	2,935999925830401E-001	1,9134434E-001	1,9159469E-001	3,842600345718289E-002	1,000000000000000E+000	7,0013702E-006	41	7,3622182E-006
2	1	0	1	0	3,201999919110676E-001	2,0467080E-001	2,0492996E-001	4,105508305753271E-002	1,000000000000000E+000	8,0606460E-006	41	8,4134163E-006
2	1	0	1	0	3,467999912390951E-001	2,1796399E-001	2,1825306E-001	4,368885756654595E-002	1,000000000000000E+000	9,1897928E-006	41	9,5352270E-006
2	1	0	1	0	3,735999905620702E-001	2,3135711E-001	2,3162755E-001	4,633596213728508E-002	1,000000000000000E+000	1,0398229E-005	41	1,0732686E-005
2	1	0	1	0	4,001999898900976E-001	2,4465026E-001	2,4493586E-001	4,896592512086506E-002	1,000000000000000E+000	1,1667732E-005	41	1,1993511E-005
2	1	0	1	0	4,267999892181251E-001	2,5795451E-001	2,5821000E-001	5,158787031735601E-002	1,000000000000000E+000	1,3007110E-005	41	1,3320504E-005
2	1	0	1	0	4,533999885461526E-001	2,7126986E-001	2,7150744E-001	5,421978777255088E-002	1,000000000000000E+000	1,4416528E-005	41	1,4721076E-005
2	1	0	1	0	4,801999878691277E-001	2,8466299E-001	2,8490415E-001	5,686716915806789E-002	1,000000000000000E+000	1,5907148E-005	41	1,6201693E-005
2	1	0	1	0	5,067999871971551E-001	2,9795617E-001	2,9817846E-001	5,948550937076408E-002	1,000000000000000E+000	1,7456703E-005	41	1,7737299E-005
2	1	0	1	0	5,333999865251826E-001	3,1124935E-001	3,1150138E-001	6,212146732723378E-002	1,000000000000000E+000	1,9076389E-005	41	1,9350922E-005
2	1	0	1	0	5,600999858506839E-001	3,2462060E-001	3,2489395E-001	6,477502487491460E-002	1,000000000000000E+000	2,0772397E-005	41	2,1045014E-005
2	1	0	1	0	5,867999851761851E-001	3,3796892E-001	3,3822361E-001	6,739958316902656E-002	1,000000000000000E+000	2,2539036E-005	41	2,2796130E-005
2	1	0	1	0	6,133999845042126E-001	3,5126209E-001	3,5152715E-001	7,003726942445299E-002	1,000000000000000E+000	2,4369108E-005	41	2,4620002E-005
2	1	0	1	0	6,399999838322401E-001	3,6455521E-001	3,6479935E-001	7,266511999672121E-002	1,000000000000000E+000	2,6269096E-005	41	2,6508189E-005
2	1	0	1	0	6,667999831552152E-001	3,7794834E-001	3,7820762E-001	7,531616231620630E-002	1,000000000000000E+000	2,8254031E-005	41	2,8485147E-005
2	1	0	1	0	6,933999824832426E-001	3,9127481E-001	3,9158008E-001	7,795397806912674E-002	1,000000000000000E+000	3,0294497E-005	41	3,0525225E-005
2	1	0	1	0	7,199999818112701E-001	4,0456805E-001	4,0486249E-001	8,058162014931458E-002	1,000000000000000E+000	3,2405027E-005	41	3,2624477E-005
2	1	0	1	0	7,465999811392976E-001	4,1786116E-001	4,1815841E-001	8,320451325853351E-002	1,000000000000000E+000	3,4585410E-005	41	3,4792669E-005
2	1	0	1	0	7,733999804622727E-001	4,3125427E-001	4,3150011E-001	8,585176962078545E-002	1,000000000000000E+000	3,6852754E-005	41	3,7045047E-005
2	1	0	1	0	7,999999797903001E-001	4,4454738E-001	4,4480366E-001	8,847561623260847E-002	1,000000000000000E+000	3,9173348E-005	41	3,9354276E-005
2	1	0	1	0	8,265999791183276E-001	4,5787391E-001	4,5810759E-001	9,110598589759333E-002	1,000000000000000E+000	4,1563904E-005	41	4,1736344E-005
2	1	0	1	0	8,531999784463551E-001	4,7116706E-001	4,7142559E-001	9,373694165260549E-002	1,000000000000000E+000	4,4024371E-005	41	4,4189994E-005
2	1	0	1	0	8,799999777693301E-001	4,8456019E-001	4,8482934E-001	9,638867160247200E-002	1,000000000000000E+000	4,6574209E-005	41	4,6732057E-005
2	1	0	1	0	9,065999770973576E-001	4,9785334E-001	4,9807787E-001	9,901540258239683E-002	1,000000000000000E+000	4,9175109E-005	41	4,9317379E-005
2	1	0	1	0	9,331999764253851E-001	5,1114655E-001	5,1141101E-001	1,016371973916346E-001	1,000000000000000E+000	5,1845876E-005	41	5,1978383E-005
2	1	0	1	0	9,597999757534126E-001	5,2447295E-001	5,2473462E-001	1,042757050774525E-001	1,000000000000000E+000	5,4586697E-005	41	5,4717071E-005
2	1	0	1	0	9,865999750763876E-001	5,3786606E-001	5,3813332E-001	1,069253948497739E-001	1,000000000000000E+000	5,7418896E-005	41	5,7540117E-005
2	1	0	1	0	1,013199974404415E+000	5,5115926E-001	5,5139232E-001	1,095524956491621E-001	1,000000000000000E+000	6,0300084E-005	41	6,0406404E-005
2	1	0	1	0	1,069799972974579E+000	5,7944477E-001	5,7967800E-001	1,152398984627026E-001	1,000000000000000E+000	6,6624074E-005	40	6,6802037E-005
2	1	0	1	0	1,096399972302606E+000	5,9277123E-001	5,9304804E-001	1,178582699096302E-001	1,000000000000000E+000	6,9726346E-005	40	6,9895614E-005
2	1	0	1	0	1,123199971625581E+000	6,0616434E-001	6,0643601E-001	1,205112723672453E-001	1,000000000000000E+000	7,2922703E-005	40	7,3082374E-005
2	1	0	1	0	1,149799970953609E+000	6,1945754E-001	6,1966658E-001	1,231280599662568E-001	1,000000000000000E+000	7,6165299E-005	40	7,6298340E-005
2	1	0	1	0	1,176399970281636E+000	6,3275063E-001	6,3296652E-001	1,257485869980886E-001	1,000000000000000E+000	7,9477359E-005	40	7,9594647E-005
2	1	0	1	0	1,203099969607138E+000	6,4609891E-001	6,4640141E-001	1,284096956208900E-001	1,000000000000000E+000	8,2872582E-005	40	8,3004204E-005
2	1	0	1	0	1,229799968932639E+000	6,5947020E-001	6,5969890E-001	1,310498267780837E-001	1,000000000000000E+000	8,6338579E-005	40	8,6453430E-005
2	1	0	1	0	1,256399968260666E+000	6,7276335E-001	6,7297316E-001	1,336733138596176E-001	1,000000000000000E+000	8,9861518E-005	40	8,9958550E-005
2	1	0	1	0	1,282999967588694E+000	6,8605661E-001	6,8634677E-001	1,363142263144256E-001	1,000000000000000E+000	9,3454124E-005	40	9,3558832E-005
2	1	0	1	0	1,309799966911669E+000	6,9944966E-001	6,9969225E-001	1,389544731335872E-001	1,000000000000000E+000	9,7145035E-005	40	9,7225369E-005
2	1	0	1	0	1,336399966239696E+000	7,1276504E-001	7,1303338E-001	1,415978946451415E-001	1,000000000000000E+000	1,0087850E-004	40	1,0096403E-004
2	1	0	1	0	1,362999965567724E+000	7,2606921E-001	7,2635567E-001	1,442107278271580E-001	1,000000000000000E+000	1,0468164E-004	40	1,0474828E-004
2	1	0	1	0	1,389599964895751E+000	7,3936248E-001	7,3964596E-001	1,468183416659796E-001	1,000000000000000E+000	1,0855506E-004	40	1,0859359E-004
2	1	0	1	0	1,416399964218726E+000	7,5275552E-001	7,5305468E-001	1,494839203272326E-001	1,000000000000000E+000	1,1252812E-004	40	1,1256956E-004
2	1	0	1	0	1,442999963546754E+000	7,6604873E-001	7,6631379E-001	1,520972675333423E-001	1,000000000000000E+000	1,1654155E-004	40	1,1655423E-004
2	1	0	1	0	1,469599962874781E+000	7,7937520E-001	7,7964890E-001	1,547488005288569E-001	1,000000000000000E+000	1,2062479E-004	40	1,2064973E-004
2	1	0	1	0	1,496199962202809E+000	7,9266834E-001	7,9291028E-001	1,573753521506059E-001	1,000000000000000E+000	1,2477818E-004	40	1,2478454E-004
2	1	0	1	0	1,522999961525784E+000	8,0606145E-001	8,0631220E-001	1,600236132449939E-001	1,000000000000000E+000	1,2903351E-004	40	1,2902899E-004
2	1	0	1	0	1,549599960853811E+000	8,1935465E-001	8,1964087E-001	1,626407966386378E-001	1,000000000000000E+000	1,3332716E-004	40	1,3330704E-004
2	1	0	1	0	1,576199960181839E+000	8,3264768E-001	8,3292705E-001	1,652732668269896E-001	1,000000000000000E+000	1,3769075E-004	40	1,3766058E-004
2	1	0	1	0	1,602799959509866E+000	8,4597433E-001	8,4622562E-001	1,679172231873972E-001	1,000000000000000E+000	1,4212439E-004	40	1,4209586E-004
2	1	0	1	0	1,629599958832841E+000	8,5936737E-001	8,5967070E-001	1,705788483513362E-001	1,000000000000000E+000	1,4666226E-004	40	1,4664164E-004
2	1	0	1	0	1,656199958160869E+000	8,7266052E-001	8,7292415E-001	1,731875196099288E-001	1,000000000000000E+000	1,5123637E-004	40	1,5117957E-004
2	1	0	1	0	1,682799957488896E+000	8,8595366E-001	8,8624251E-001	1,758417565239752E-001	1,000000000000000E+000	1,5588047E-004	40	1,5583844E-004
2	1	0	1	0	1,709599956811871E+000	8,9934677E-001	8,9963889E-001	1,784716794519534E-001	1,000000000000000E+000	1,6063024E-004	40	1,6056007E-004
2	1	0	1	0	1,736199956139899E+000	9,1267329E-001	9,1298568E-001	1,811184807001460E-001	1,000000000000000E+000	1,6541500E-004	40	1,6535858E-004
2	1	0	1	0	1,762799955467926E+000	9,2596656E-001	9,2624134E-001	1,837446844244074E-001	1,000000000000000E+000	1,7026953E-004	40	1,7019192E-004
2	1	0	1	0	1,789399954795954E+000	9,3925971E-001	9,3952650E-001	1,863258664884306E-001	1,000000000000000E+000	1,7519380E-004	40	1,7505809E-004
2	1	0	1	0	1,816199954118929E+000	9,5265281E-001	9,5290571E-001	1,889902855696475E-001	1,000000000000000E+000	1,8022570E-004	40	1,8008992E-004
2	1	0	1	0	1,842799953446956E+000	9,6594590E-001	9,6616739E-001	1,916285785982237E-001	1,000000000000000E+000	1,8529002E-004	40	1,8514528E-004
2	1	0	1	0	1,869399952774984E+000	9,7927237E-001	9,7951633E-001	1,942549533928595E-001	1,000000000000000E+000	1,9042414E-004	40	1,9027590E-004
2	1	0	1	0	1,895999952103011E+000	9,9256563E-001	9,9285442E-001	1,968965784006294E-001	1,000000000000000E+000	1,9562854E-004	40	1,9548964E-004
2	1	0	1	0	1,914599951633136E+000	9,9829590E-001	9,9856615E-001	1,972774648282210E-001	1,000000000000000E+000	1,9930411E-004	40	1,9699460E-004
2	1	0	1	0	1,941399950956111E+000	9,8490280E-001	9,8517418E-001	1,942867421118231E-001	1,000000000000000E+000	2,0454558E-004	40	1,9140629E-004
2	1	0	1	0	1,967999950284138E+000	9,7158748E-001	9,7178352E-001	1,916445312691697E-001	1,000000000000000E+000	2,0967623E-004	40	1,8623700E-004
2	1	0	1	0	1,994599949612166E+000	9,5828319E-001	9,5854485E-001	1,890209928814632E-001	1,000000000000000E+000	2,1473708E-004	40	1,8118510E-004
2	1	0	1	0	2,021199948940193E+000	9,4498998E-001	9,4518971E-001	1,863864857781059E-001	1,000000000000000E+000	2,1972788E-004	40	1,7617059E-004
2	1	0	1	0	2,047999948263168E+000	9,3159693E-001	9,3183225E-001	1,837464706060321E-001	1,000000000000000E+000	2,2468585E-004	40	1,7122089E-004
2	1	0	1	0	2,074599947591196E+000	9,1830379E-001	9,1859460E-001	1,811271450831575E-001	1,000000000000000E+000	2,2953674E-004	40	1,6638242E-004
2	1	0	1	0	2,101199946919223E+000	9,0497726E-001	9,0525067E-001	1,785097218681284E-001	1,000000000000000E+000	2,3431778E-004	40	1,6159605E-004
2	1	0	1	0	2,127799946247251E+000	8,9168417E-001	8,9191473E-001	1,758739877938451E-001	1,000000000000000E+000	2,3902878E-004	40	1,5686460E-004
2	1	0	1	0	2,154599945570226E+000	8,7829095E-001	8,7857616E-001	1,732153971039225E-001	1,000000000000000E+000	2,4370455E-004	40	1,5218293E-004
2	1	0	1	0	2,181199944898253E+000	8,6499780E-001	8,6525905E-001	1,705812362042103E-001	1,000000000000000E+000	2,4827497E-004	40	1,4759696E-004
2	1	0	1	0	2,207799944226281E+000	8,5170466E-001	8,5194206E-001	1,679525792307686E-001	1,000000000000000E+000	2,5277573E-004	40	1,4308587E-004
2	1	0	1	0	2,234399943554308E+000	8,3837819E-001	8,3865207E-001	1,653220449089226E-001	1,000000000000000E+000	2,5720635E-004	40	1,3864768E-004
2	1	0	1	0	2,261199942877283E+000	8,2498509E-001	8,2521218E-001	1,626677382155332E-001	1,000000000000000E+000	2,6159931E-004	40	1,3423539E-004
2	1	0	1	0	2,287799942205311E+000	8,1169194E-001	8,1191975E-001	1,600464303415121E-001	1,000000000000000E+000	2,6588951E-004	40	1,2994486E-004
2	1	0	1	0	2,314399941533338E+000	7,9839879E-001	7,9868394E-001	1,574213800039922E-001	1,000000000000000E+000	2,7010962E-004	40	1,2572993E-004
2	1	0	1	0	2,341199940856313E+000	7,8500569E-001	7,8527647E-001	1,547701211685006E-001	1,000000000000000E+000	2,7429074E-004	40	1,2153733E-004
2	1	0	1	0	2,367799940184341E+000	7,7167910E-001	7,7193326E-001	1,521271192197071E-001	1,000000000000000E+000	2,7837043E-004	40	1,1743198E-004
2	1	0	1	0	2,394399939512368E+000	7,5838608E-001	7,5863349E-001	1,494911780328649E-001	1,000000000000000E+000	2,8238000E-004	40	1,1340901E-004
2	1	0	1	0	2,420999938840396E+000	7,4509293E-001	7,4537098E-001	1,468660801649095E-001	1,000000000000000E+000	2,8631976E-004	40	1,0946971E-004
2	1	0	1	0	2,447799938163371E+000	7,3169976E-001	7,3195606E-001	1,442378121117756E-001	1,000000000000000E+000	2,9021889E-004	40	1,0557574E-004
2	1	0	1	0	2,474399937491398E+000	7,1840656E-001	7,1867222E-001	1,416074083943388E-001	1,000000000000000E+000	2,9401874E-004	40	1,0176931E-004
2	1	0	1	0	2,500999936819426E+000	7,0508009E-001	7,0532924E-001	1,389739393314813E-001	1,000000000000000E+000	2,9774857E-004	40	9,8022385E-005
2	1	0	1	0	2,527599936147453E+000	6,9178694E-001	6,9205523E-001	1,363695089433654E-001	1,000000000000000E+000	3,0140847E-004	40	9,4375231E-005
2	1	0	1	0	2,554399935470428E+000	6,7839384E-001	6,7861664E-001	1,336912790352169E-001	1,000000000000000E+000	3,0502488E-004	40	9,0725131E-005
2	1	0	1	0	2,580999934798456E+000	6,6510069E-001	6,6534585E-001	1,310759475124845E-001	1,000000000000000E+000	3,0854420E-004	40	8,7210836E-005
2	1	0	1	0	2,607599934126483E+000	6,5180749E-001	6,5207595E-001	1,284287109680007E-001	1,000000000000000E+000	3,1199350E-004	40	8,3745275E-005
2	1	0	1	0	2,634199933454511E+000	6,3848096E-001	6,3869834E-001	1,257995769672569E-001	1,000000000000000E+000	3,1537257E-004	40	8,0347978E-005
2	1	0	1	0	2,660999932777486E+000	6,2508792E-001	6,2536925E-001	1,231620122950212E-001	1,000000000000000E+000	3,1870624E-004	40	7,7021738E-005
2	1	0	1	0	2,687599932105513E+000	6,1179477E-001	6,1202341E-001	1,205153824140633E-001	1,000000000000000E+000	3,2194506E-004	40	7,3758238E-005
2	1	0	1	0	2,714199931433541E+000	5,9850162E-001	5,9873277E-001	1,179184798112449E-001	1,000000000000000E+000	3,2511406E-004	40	7,0601658E-005
2	1	0	1	0	2,740999930756516E+000	5,8510846E-001	5,8540261E-001	1,152603211133587E-001	1,000000000000000E+000	3,2823606E-004	40	6,7473695E-005
2	1	0	1	0	2,767599930084543E+000	5,7178199E-001	5,7210445E-001	1,126067516956635E-001	1,000000000000000E+000	3,3126448E-004	40	6,4422828E-005
2	1	0	1	0	2,794199929412571E+000	5,5848879E-001	5,5877292E-001	1,099962022854017E-001	1,000000000000000E+000	3,3422321E-004	40	6,1462903E-005
2	1	0	1	0	2,820799928740598E+000	5,4519570E-001	5,4544699E-001	1,073593050571316E-001	1,000000000000000E+000	3,3711173E-004	40	5,8558810E-005
2	1	0	1	0	2,847599928063573E+000	5,3180254E-001	5,3209001E-001	1,047105362386600E-001	1,000000000000000E+000	3,3995163E-004	40	5,5715431E-005
2	1	0	1	0	2,874199927391601E+000	5,1849830E-001	5,1880622E-001	1,021160897158557E-001	1,000000000000000E+000	3,4270025E-004	40	5,2978463E-005
2	1	0	1	0	2,900799926719628E+000	5,0518292E-001	5,0544488E-001	9,944906328261527E-002	1,000000000000000E+000	3,4537874E-004	40	5,0266019E-005
2	1	0	1	0	2,927399926047656E+000	4,9188974E-001	4,9217075E-001	9,682081838836898E-002	1,000000000000000E+000	3,4798734E-004	40	4,7652375E-005
2	1	0	1	0	2,954199925370631E+000	4,7849661E-001	4,7877997E-001	9,418681554670982E-002	1,000000000000000E+000	3,5054472E-004	40	4,5094759E-005
2	1	0	1	0	2,980799924698658E+000	4,6520346E-001	4,6544123E-001	9,156356924698550E-002	1,000000000000000E+000	3,5301279E-004	40	4,2617459E-005
2	1	0	1	0	3,007399924026686E+000	4,5187697E-001	4,5215660E-001	8,891900176337653E-002	1,000000000000000E+000	3,5541109E-004	40	4,0205316E-005
2	1	0	1	0	3,033999923354713E+000	4,3858382E-001	4,3885720E-001	8,628328262905927E-002	1,000000000000000E+000	3,5773919E-004	40	3,7866041E-005
2	1	0	1	0	3,060799922677688E+000	4,2519075E-001	4,2544436E-001	8,362583037038956E-002	1,000000000000000E+000	3,6001386E-004	40	3,5578138E-005
2	1	0	1	0	3,087399922005716E+000	4,1189754E-001	4,1217452E-001	8,102221679970778E-002	1,000000000000000E+000	3,6220168E-004	40	3,3395292E-005
2	1	0	1	0	3,113999921333743E+000	3,9860439E-001	3,9887613E-001	7,839562734783025E-002	1,000000000000000E+000	3,6431968E-004	40	3,1270145E-005
2	1	0	1	0	3,140599920661771E+000	3,8527787E-001	3,8550806E-001	7,572162918319639E-002	1,000000000000000E+000	3,6636763E-004	40	2,9191298E-005
2	1	0	1	0	3,167399919984746E+000	3,7188482E-001	3,7214559E-001	7,310334437837229E-002	1,000000000000000E+000	3,6835985E-004	40	2,7205087E-005
2	1	0	1	0	3,193999919312773E+000	3,5859168E-001	3,5884282E-001	7,047860550131513E-002	1,000000000000000E+000	3,7026734E-004	40	2,5290741E-005
2	1	0	1	0	3,220599918640801E+000	3,4529850E-001	3,4553984E-001	6,784647858779258E-002	1,000000000000000E+000	3,7210499E-004	40	2,3443661E-005
2	1	0	1	0	3,247399917963776E+000	3,3190536E-001	3,3219996E-001	6,521493117616073E-002	1,000000000000000E+000	3,7388562E-004	40	2,1664398E-005
2	1	0	1	0	3,273999917291803E+000	3,1857890E-001	3,1883621E-001	6,257856845816945E-002	1,000000000000000E+000	3,7558295E-004	40	1,9952313E-005
2	1	0	1	0	3,300599916619831E+000	3,0528572E-001	3,0555105E-001	5,995822462136857E-002	1,000000000000000E+000	3,7721038E-004	40	1,8320299E-005
2	1	0	1	0	3,327199915947858E+000	2,9199257E-001	2,9222584E-001	5,730070718273050E-002	1,000000000000000E+000	3,7876767E-004	40	1,6744747E-005
2	1	0	1	0	3,353999915270833E+000	2,7859947E-001	2,7887022E-001	5,467341736172482E-002	1,000000000000000E+000	3,8026602E-004	40	1,5246788E-005
2	1	0	1	0	3,380599914598861E+000	2,6530629E-001	2,6552987E-001	5,203184220299606E-002	1,000000000000000E+000	3,8168314E-004	40	1,3816009E-005
2	1	0	1	0	3,407199913926888E+000	2,5197980E-001	2,5226378E-001	4,940363327041275E-002	1,000000000000000E+000	3,8303027E-004	40	1,2462748E-005
2	1	0	1	0	3,433799913254916E+000	2,3868665E-001	2,3895046E-001	4,676005357857016E-002	1,000000000000000E+000	3,8430723E-004	40	1,1173336E-005
2	1	0	1	0	3,460599912577891E+000	2,2529353E-001	2,2554007E-001	4,411975171630433E-002	1,000000000000000E+000	3,8552340E-004	40	9,9507715E-006
2	1	0	1	0	3,487199911905918E+000	2,1200038E-001	2,1225190E-001	4,150067098138011E-002	1,000000000000000E+000	3,8666016E-004	40	8,8085962E-006
2	1	0	1	0	3,513799911233946E+000	1,9870724E-001	1,9894941E-001	3,886320477031427E-002	1,000000000000000E+000	3,8772685E-004	40	7,7318118E-006
2	1	0	1	0	3,540399910561973E+000	1,8538074E-001	1,8564852E-001	3,622111706984790E-002	1,000000000000000E+000	3,8872345E-004	40	6,7243968E-006
2	1	0	1	0	3,597199909127085E+000	1,5699534E-001	1,5728183E-001	3,054448759600444E-002	1,000000000000000E+000	3,9067585E-004	41	4,8040929E-006
2	1	0	1	0	3,623799908455112E+000	1,4370218E-001	1,4397444E-001	2,791788611454346E-002	1,000000000000000E+000	3,9145135E-004	41	4,0194618E-006
2	1	0	1	0	3,650399907783140E+000	1,3040902E-001	1,3066840E-001	2,528105749758347E-002	1,000000000000000E+000	3,9215692E-004	41	3,3034353E-006
2	1	0	1	0	3,676999907111167E+000	1,1708254E-001	1,1737468E-001	2,265768232294557E-002	1,000000000000000E+000	3,9279222E-004	41	2,6594382E-006
2	1	0	1	0	3,703799906434142E+000	1,0368943E-001	1,0390589E-001	2,000200696396248E-002	1,000000000000000E+000	3,9336170E-004	41	2,0783264E-006
2	1	0	1	0	3,730399905762170E+000	9,0396255E-002	9,0641104E-002	1,738040862037452E-002	1,000000000000000E+000	3,9385681E-004	41	1,5753794E-006
2	1	0	1	0	3,756999905090197E+000	7,7103101E-002	7,7382863E-002	1,475495619743022E-002	1,000000000000000E+000	3,9428205E-004	41	1,1417808E-006
2	1	0	1	0	3,783699904415698E+000	6,3743301E-002	6,4019412E-002	1,210895313124644E-002	1,000000000000000E+000	3,9463872E-004	41	7,7520804E-007
2	1	0	1	0	3,810399903741200E+000	5,0383508E-002	5,0659511E-002	9,472984937504730E-003	1,000000000000000E+000	3,9492475E-004	41	4,7989681E-007
2	1	0	1	0	3,836999903069227E+000	3,7090346E-002	3,7313409E-002	6,844025836592979E-003	1,000000000000000E+000	3,9513950E-004	41	2,5537395E-007
2	1	0	1	0	3,863599902397254E+000	2,3797181E-002	2,4031449E-002	4,210481347339139E-003	1,000000000000000E+000	3,9528441E-004	41	1,0118397E-007
2	1	0	1	0	3,890399901720230E+000	1,0404070E-002	1,0637357E-002	1,565363604746985E-003	1,000000000000000E+000	3,9535968E-004	41	1,6651331E-008
2	0	0	1	0	3,916999901048257E+000	-2,9224090E-003	-2,7422465E-003	-1,080533965432550E-003	1,000000000000000E+000	3,9536401E-004	41	2,9630904E-009
2	0	0	1	0	3,943599900376285E+000	-1,6215580E-002	-1,5983967E-002	-3,707937023136761E-003	1,000000000000000E+000	3,9529827E-004	41	5,9267542E-008
2	0	0	1	0	3,970199899704312E+000	-2,9508749E-002	-2,9324731E-002	-6,328991888221946E-003	1,000000000000000E+000	3,9516261E-004	41	1,8559598E-007
2	0	0	1	0	3,996999899027287E+000	-4,2901862E-002	-4,2765748E-002	-8,996486721783444E-003	1,000000000000000E+000	3,9495525E-004	41	3,8474147E-007
2	0	0	1	0	4,023599898355315E+000	-5,6195032E-002	-5,5999711E-002	-1,161077300857871E-002	1,000000000000000E+000	3,9467914E-004	41	6,5019992E-007
2	0	0	1	0	4,050199897683342E+000	-6,9521517E-002	-6,9337174E-002	-1,424772892714821E-002	1,000000000000000E+000	3,9433312E-004	41	9,8789724E-007
2	0	0	1	0	4,076799897011369E+000	-8,2814686E-002	-8,2597524E-002	-1,687079260082097E-002	1,000000000000000E+000	3,9391714E-004	41	1,3934857E-006
2	0	0	1	0	4,103599896334345E+000	-9,6207805E-002	-9,5964849E-002	-1,951268361517575E-002	1,000000000000000E+000	3,9342747E-004	41	1,8725317E-006
2	0	0	1	0	4,130199895662372E+000	-1,0950097E-001	-1,0927429E-001	-2,213845478521159E-002	1,000000000000000E+000	3,9287133E-004	41	2,4191640E-006
2	0	0	1	0	4,156799894990399E+000	-1,2279415E-001	-1,2256190E-001	-2,476649617892690E-002	1,000000000000000E+000	3,9224530E-004	41	3,0354288E-006
2	0	0	1	0	4,183399894318427E+000	-1,3612063E-001	-1,3588698E-001	-2,741162764626404E-002	1,000000000000000E+000	3,9154914E-004	41	3,7248833E-006
2	0	0	1	0	4,210199893641402E+000	-1,4951374E-001	-1,4930275E-001	-3,005195276394562E-002	1,000000000000000E+000	3,9077702E-004	41	4,4868393E-006
2	0	0	1	0	4,236799892969429E+000	-1,6280691E-001	-1,6260581E-001	-3,268386730730216E-002	1,000000000000000E+000	3,8994054E-004	41	5,3145868E-006
2	0	0	1	0	4,263399892297457E+000	-1,7610008E-001	-1,7584142E-001	-3,530832073447515E-002	1,000000000000000E+000	3,8903413E-004	41	6,2086651E-006
2	0	0	1	0	4,290199891620432E+000	-1,8949316E-001	-1,8926579E-001	-3,795399397010124E-002	1,000000000000000E+000	3,8805025E-004	41	7,1833924E-006
2	0	0	1	0	4,316799890948460E+000	-2,0281966E-001	-2,0258176E-001	-4,059046814024114E-002	1,000000000000000E+000	3,8700341E-004	41	8,2228889E-006
2	0	0	1	0	4,343399890276487E+000	-2,1611285E-001	-2,1589959E-001	-4,322631139803002E-002	1,000000000000000E+000	3,8588658E-004	41	9,3325425E-006
2	0	0	1	0	4,369999889604514E+000	-2,2940603E-001	-2,2920690E-001	-4,584780143147027E-002	1,000000000000000E+000	3,8469982E-004	41	1,0508633E-005
2	0	0	1	0	4,396799888927490E+000	-2,4279915E-001	-2,4263355E-001	-4,849432348904270E-002	1,000000000000000E+000	3,8343348E-004	41	1,1766350E-005
2	0	0	1	0	4,423399888255517E+000	-2,5609228E-001	-2,5587666E-001	-5,112050723303907E-002	1,000000000000000E+000	3,8210646E-004	41	1,3080545E-005
2	0	0	1	0	4,449999887583544E+000	-2,6941878E-001	-2,6918346E-001	-5,375011637806892E-002	1,000000000000000E+000	3,8070948E-004	41	1,4468642E-005
2	0	0	1	0	4,476599886911572E+000	-2,8271198E-001	-2,8246629E-001	-5,637614410176540E-002	1,000000000000000E+000	3,7924264E-004	41	1,5924361E-005
2	0	0	1	0	4,503399886234547E+000	-2,9610512E-001	-2,9587469E-001	-5,903591654981333E-002	1,000000000000000E+000	3,7769412E-004	41	1,7467233E-005
2	0	0	1	0	4,529999885562574E+000	-3,0939826E-001	-3,0917487E-001	-6,165554413164492E-002	1,000000000000000E+000	3,7608680E-004	41	1,9062345E-005
2	0	0	1	0	4,556599884890602E+000	-3,2269141E-001	-3,2246128E-001	-6,428490667506881E-002	1,000000000000000E+000	3,7440963E-004	41	2,0729392E-005
2	0	0	1	0	4,583199884218629E+000	-3,3601791E-001	-3,3579543E-001	-6,691577168627771E-002	1,000000000000000E+000	3,7266244E-004	41	2,2470011E-005
2	0	0	1	0	4,609999883541605E+000	-3,4941104E-001	-3,4920424E-001	-6,956889438345856E-002	1,000000000000000E+000	3,7083129E-004	41	2,4293753E-005
2	0	0	1	0	4,636599882869632E+000	-3,6270419E-001	-3,6248064E-001	-7,219678192729248E-002	1,000000000000000E+000	3,6894373E-004	41	2,6169935E-005
2	0	0	1	0	4,663199882197659E+000	-3,7599736E-001	-3,7577429E-001	-7,481884808415362E-002	1,000000000000000E+000	3,6698626E-004	41	2,8115001E-005
2	0	0	1	0	4,689899881523161E+000	-3,8935715E-001	-3,8916230E-001	-7,747362349644016E-002	1,000000000000000E+000	3,6495103E-004	41	3,0149813E-005
2	0	0	1	0	4,716599880848662E+000	-4,0271699E-001	-4,0253142E-001	-8,011065438816606E-002	1,000000000000000E+000	3,6284514E-004	41	3,2247055E-005
2	0	0	1	0	4,743199880176689E+000	-4,1601014E-001	-4,1581988E-001	-8,273739994425922E-002	1,000000000000000E+000	3,6067716E-004	41	3,4403856E-005
2	0	0	1	0	4,769799879504717E+000	-4,2930329E-001	-4,2909640E-001	-8,536307432611134E-002	1,000000000000000E+000	3,5843937E-004	41	3,6628990E-005
2	0	0	1	0	4,796599878827692E+000	-4,4269642E-001	-4,4245705E-001	-8,800520750810384E-002	1,000000000000000E+000	3,5611412E-004	41	3,8938524E-005
2	0	0	1	0	4,823199878155719E+000	-4,5602286E-001	-4,5576787E-001	-9,064744798233759E-002	1,000000000000000E+000	3,5373608E-004	41	4,1314193E-005
2	0	0	1	0	4,849799877483747E+000	-4,6931610E-001	-4,6911964E-001	-9,327826186587695E-002	1,000000000000000E+000	3,5128795E-004	41	4,3758664E-005
2	0	0	1	0	4,876399876811774E+000	-4,8260924E-001	-4,8238131E-001	-9,589629701028252E-002	1,000000000000000E+000	3,4876983E-004	41	4,6258581E-005
2	0	0	1	0	4,903199876134750E+000	-4,9600241E-001	-4,9578264E-001	-9,854675952131664E-002	1,000000000000000E+000	3,4616218E-004	41	4,8857772E-005
2	0	0	1	0	4,929799875462777E+000	-5,0929552E-001	-5,0907594E-001	-1,011771541486570E-001	1,000000000000000E+000	3,4350387E-004	41	5,1506853E-005
2	0	0	1	0	4,956399874790804E+000	-5,2262205E-001	-5,2238595E-001	-1,038148147286844E-001	1,000000000000000E+000	3,4077547E-004	41	5,4231401E-005
2	0	0	1	0	4,982999874118832E+000	-5,3591514E-001	-5,3571266E-001	-1,064338037453125E-001	1,000000000000000E+000	3,3797711E-004	41	5,7017936E-005
2	0	0	1	0	5,009799873441807E+000	-5,4930830E-001	-5,4909879E-001	-1,090762497158719E-001	1,000000000000000E+000	3,3508713E-004	41	5,9893635E-005
2	0	0	1	0	5,066399872011971E+000	-5,7759374E-001	-5,7739484E-001	-1,145864965394136E-001	1,000000000000000E+000	3,2879342E-004	40	6,6161650E-005
2	0	0	1	0	5,092999871339998E+000	-5,9092027E-001	-5,9073329E-001	-1,172389609079496E-001	1,000000000000000E+000	3,2570795E-004	40	6,9256959E-005
2	0	0	1	0	5,119599870668026E+000	-6,0421342E-001	-6,0395551E-001	-1,198556434654161E-001	1,000000000000000E+000	3,2255237E-004	40	7,2387476E-005
2	0	0	1	0	5,146399869991001E+000	-6,1760652E-001	-6,1738443E-001	-1,225120840516558E-001	1,000000000000000E+000	3,1930252E-004	40	7,5637050E-005
2	0	0	1	0	5,172999869319028E+000	-6,3089967E-001	-6,3066888E-001	-1,251307570317290E-001	1,000000000000000E+000	3,1600668E-004	40	7,8916077E-005
2	0	0	1	0	5,199599868647056E+000	-6,4419287E-001	-6,4395154E-001	-1,277401276805896E-001	1,000000000000000E+000	3,1264091E-004	40	8,2258448E-005
2	0	0	1	0	5,226199867975083E+000	-6,5751940E-001	-6,5731388E-001	-1,303932072846988E-001	1,000000000000000E+000	3,0920535E-004	40	8,5709267E-005
2	0	0	1	0	5,252999867298058E+000	-6,7091250E-001	-6,7071396E-001	-1,330360663433869E-001	1,000000000000000E+000	3,0567334E-004	40	8,9229150E-005
2	0	0	1	0	5,279599866626086E+000	-6,8420571E-001	-6,8399316E-001	-1,356834336746636E-001	1,000000000000000E+000	3,0209741E-004	40	9,2806542E-005
2	0	0	1	0	5,306199865954113E+000	-6,9749880E-001	-6,9731659E-001	-1,383088105959660E-001	1,000000000000000E+000	2,9845111E-004	40	9,6445030E-005
2	0	0	1	0	5,332999865277088E+000	-7,1089190E-001	-7,1072501E-001	-1,409579255928590E-001	1,000000000000000E+000	2,9470693E-004	40	1,0018233E-004
2	0	0	1	0	5,359599864605116E+000	-7,2421843E-001	-7,2406322E-001	-1,436067028805450E-001	1,000000000000000E+000	2,9092040E-004	40	1,0398033E-004
2	0	0	1	0	5,386199863933143E+000	-7,3751163E-001	-7,3730236E-001	-1,462302354106212E-001	1,000000000000000E+000	2,8706380E-004	40	1,0781590E-004
2	0	0	1	0	5,412799863261171E+000	-7,5080478E-001	-7,5064784E-001	-1,488395374268290E-001	1,000000000000000E+000	2,8313708E-004	40	1,1172608E-004
2	0	0	1	0	5,439599862584146E+000	-7,6419789E-001	-7,6400834E-001	-1,515097514163548E-001	1,000000000000000E+000	2,7911039E-004	40	1,1575472E-004
2	0	0	1	0	5,466199861912173E+000	-7,7749103E-001	-7,7730507E-001	-1,541059499936330E-001	1,000000000000000E+000	2,7504368E-004	40	1,1978734E-004
2	0	0	1	0	5,492799861240201E+000	-7,9081756E-001	-7,9063648E-001	-1,567737488405936E-001	1,000000000000000E+000	2,7090678E-004	40	1,2395105E-004
2	0	0	1	0	5,519399860568228E+000	-8,0411071E-001	-8,0389303E-001	-1,593802894814871E-001	1,000000000000000E+000	2,6670002E-004	40	1,2812471E-004
2	0	0	1	0	5,546199859891203E+000	-8,1750375E-001	-8,1731558E-001	-1,620259989266439E-001	1,000000000000000E+000	2,6239079E-004	40	1,3242637E-004
2	0	0	1	0	5,572799859219231E+000	-8,3079690E-001	-8,3061314E-001	-1,646773099317211E-001	1,000000000000000E+000	2,5804358E-004	40	1,3678314E-004
2	0	0	1	0	5,599399858547258E+000	-8,4411234E-001	-8,4390092E-001	-1,672752562037205E-001	1,000000000000000E+000	2,5362676E-004	40	1,4116375E-004
2	0	0	1	0	5,625999857875286E+000	-8,5741669E-001	-8,5722846E-001	-1,699127582212285E-001	1,000000000000000E+000	2,4914008E-004	40	1,4565405E-004
2	0	0	1	0	5,652799857198261E+000	-8,7080979E-001	-8,7059265E-001	-1,725536912679670E-001	1,000000000000000E+000	2,4454901E-004	40	1,5022398E-004
2	0	0	1	0	5,679399856526288E+000	-8,8410288E-001	-8,8389945E-001	-1,751732758013533E-001	1,000000000000000E+000	2,3992230E-004	40	1,5483556E-004
2	0	0	1	0	5,705999855854316E+000	-8,9739603E-001	-8,9717430E-001	-1,778143144639524E-001	1,000000000000000E+000	2,3522558E-004	40	1,5953043E-004
2	0	0	1	0	5,732599855182343E+000	-9,1072255E-001	-9,1053653E-001	-1,804495350477131E-001	1,000000000000000E+000	2,3045835E-004	40	1,6430589E-004
2	0	0	1	0	5,759399854505318E+000	-9,2411566E-001	-9,2392415E-001	-1,831071056347957E-001	1,000000000000000E+000	2,2558478E-004	40	1,6917707E-004
2	0	0	1	0	5,785999853833346E+000	-9,3740880E-001	-9,3720138E-001	-1,857239040895371E-001	1,000000000000000E+000	2,2067757E-004	40	1,7406070E-004
2	0	0	1	0	5,812599853161373E+000	-9,5070195E-001	-9,5047140E-001	-1,883417006135755E-001	1,000000000000000E+000	2,1570027E-004	40	1,7901340E-004
2	0	0	1	0	5,839399852484348E+000	-9,6409512E-001	-9,6385139E-001	-1,910095917604235E-001	1,000000000000000E+000	2,1061474E-004	40	1,8410487E-004
2	0	0	1	0	5,865999851812376E+000	-9,7742164E-001	-9,7721362E-001	-1,936353510866557E-001	1,000000000000000E+000	2,0549723E-004	40	1,8922311E-004
2	0	0	1	0	5,892599851140403E+000	-9,9071485E-001	-9,9050975E-001	-1,962524270444792E-001	1,000000000000000E+000	2,0030943E-004	40	1,9438994E-004
2	0	0	1	1	5,911399850665475E+000	-9,9987650E-001	-9,9967247E-001	-1,980483457446098E-001	1,000000000000000E+000	1,9660126E-004	40	1,9798348E-004
2	0	0	1	1	5,934999850069289E+000	-9,8804957E-001	-9,8783916E-001	-1,946282042442662E-001	1,000000000000000E+000	1,9198023E-004	40	1,9226136E-004
2	0	0	1	1	5,961599849397317E+000	-9,7475624E-001	-9,7448105E-001	-1,920016185535722E-001	1,000000000000000E+000	1,8683987E-004	40	1,8710193E-004
2	0	0	1	1	5,988199848725344E+000	-9,6142983E-001	-9,6118325E-001	-1,893682655529116E-001	1,000000000000000E+000	1,8176956E-004	40	1,8201761E-004
2	0	0	1	1	6,014999848048319E+000	-9,4803679E-001	-9,4781673E-001	-1,867355042001377E-001	1,000000000000000E+000	1,7673164E-004	40	1,7699103E-004
2	0	0	1	1	6,041599847376347E+000	-9,3474352E-001	-9,3455011E-001	-1,841005398581423E-001	1,000000000000000E+000	1,7180161E-004	40	1,7205118E-004
2	0	0	1	1	6,068199846704374E+000	-9,2145038E-001	-9,2124695E-001	-1,814626520247358E-001	1,000000000000000E+000	1,6694167E-004	40	1,6717191E-004
2	0	0	1	1	6,094899846029875E+000	-9,0807903E-001	-9,0789312E-001	-1,788270169034086E-001	1,000000000000000E+000	1,6213353E-004	40	1,6235582E-004
2	0	0	1	1	6,121599845355377E+000	-8,9473081E-001	-8,9454794E-001	-1,762077154999133E-001	1,000000000000000E+000	1,5739580E-004	40	1,5762624E-004
2	0	0	1	1	6,148199844683404E+000	-8,8143760E-001	-8,8120174E-001	-1,735679319962702E-001	1,000000000000000E+000	1,5274627E-004	40	1,5294837E-004
2	0	0	1	1	6,174799844011432E+000	-8,6814451E-001	-8,6794519E-001	-1,709547871529740E-001	1,000000000000000E+000	1,4816649E-004	40	1,4837939E-004
2	0	0	1	1	6,201599843334407E+000	-8,5475129E-001	-8,5456884E-001	-1,682984749029846E-001	1,000000000000000E+000	1,4362276E-004	40	1,4382263E-004
2	0	0	1	1	6,228199842662434E+000	-8,4142488E-001	-8,4121585E-001	-1,656808547306955E-001	1,000000000000000E+000	1,3918338E-004	40	1,3937335E-004
2	0	0	1	1	6,254799841990462E+000	-8,2813168E-001	-8,2793909E-001	-1,630461947662597E-001	1,000000000000000E+000	1,3481341E-004	40	1,3499231E-004
2	0	0	1	1	6,281399841318489E+000	-8,1483865E-001	-8,1464726E-001	-1,604280357268482E-001	1,000000000000000E+000	1,3051309E-004	40	1,3069226E-004
2	0	0	1	1	6,308199840641464E+000	-8,0144542E-001	-8,0120975E-001	-1,577667339763140E-001	1,000000000000000E+000	1,2625138E-004	40	1,2640425E-004
2	0	0	1	1	6,334799839969492E+000	-7,8815228E-001	-7,8797638E-001	-1,551655691408083E-001	1,000000000000000E+000	1,2209154E-004	40	1,2226681E-004
2	0	0	1	1	6,361399839297519E+000	-7,7482581E-001	-7,7462721E-001	-1,525137837529953E-001	1,000000000000000E+000	1,1800186E-004	40	1,1814132E-004
2	0	0	1	1	6,387999838625547E+000	-7,6153260E-001	-7,6131940E-001	-1,498747162443266E-001	1,000000000000000E+000	1,1398202E-004	40	1,1410253E-004
2	0	0	1	1	6,414799837948522E+000	-7,4813938E-001	-7,4797499E-001	-1,472556328071124E-001	1,000000000000000E+000	1,1000246E-004	40	1,1014353E-004
2	0	0	1	1	6,441399837276549E+000	-7,3484623E-001	-7,3467249E-001	-1,445982444662749E-001	1,000000000000000E+000	1,0612298E-004	40	1,0623235E-004
2	0	0	1	1	6,467999836604577E+000	-7,2155315E-001	-7,2131759E-001	-1,419620260964920E-001	1,000000000000000E+000	1,0231343E-004	40	1,0239970E-004
2	0	0	1	1	6,494599835932604E+000	-7,0822662E-001	-7,0802474E-001	-1,393456741507785E-001	1,000000000000000E+000	9,8574099E-005	40	9,8660188E-005
2	0	0	1	1	6,521399835255579E+000	-6,9483346E-001	-6,9465095E-001	-1,367155019116275E-001	1,000000000000000E+000	9,4877119E-005	40	9,4969553E-005
2	0	0	1	1	6,547999834583607E+000	-6,8154031E-001	-6,8133640E-001	-1,340534985647532E-001	1,000000000000000E+000	9,1278067E-005	40	9,1335525E-005
2	0	0	1	1	6,574599833911634E+000	-6,6824722E-001	-6,6803515E-001	-1,314225771406199E-001	1,000000000000000E+000	8,7749242E-005	40	8,7794899E-005
2	0	0	1	1	6,601399833234609E+000	-6,5485406E-001	-6,5465504E-001	-1,287672637573754E-001	1,000000000000000E+000	8,4264582E-005	40	8,4298139E-005
2	0	0	1	1	6,627999832562637E+000	-6,4152753E-001	-6,4129382E-001	-1,261768759461117E-001	1,000000000000000E+000	8,0876023E-005	40	8,0916448E-005
2	0	0	1	1	6,654599831890664E+000	-6,2823445E-001	-6,2800032E-001	-1,235369255358814E-001	1,000000000000000E+000	7,7557343E-005	40	7,7581230E-005
2	0	0	1	1	6,681199831218692E+000	-6,1494118E-001	-6,1470711E-001	-1,208840169924461E-001	1,000000000000000E+000	7,4308395E-005	40	7,4308264E-005
2	0	0	1	1	6,707999830541667E+000	-6,0154808E-001	-6,0130620E-001	-1,182538306883849E-001	1,000000000000000E+000	7,1105707E-005	40	7,1106762E-005
2	0	0	1	1	6,734599829869694E+000	-5,8825487E-001	-5,8809143E-001	-1,156201797188258E-001	1,000000000000000E+000	6,7997193E-005	40	6,7995235E-005
2	0	0	1	1	6,761199829197722E+000	-5,7492846E-001	-5,7470864E-001	-1,130100522112722E-001	1,000000000000000E+000	6,4958520E-005	40	6,4947853E-005
2	0	0	1	1	6,787799828525749E+000	-5,6163532E-001	-5,6141192E-001	-1,103824414856109E-001	1,000000000000000E+000	6,1989747E-005	40	6,1970015E-005
2	0	0	1	1	6,814599827848724E+000	-5,4824215E-001	-5,4796350E-001	-1,076887418535384E-001	1,000000000000000E+000	5,9069487E-005	40	5,9009501E-005
2	0	0	1	1	6,841199827176752E+000	-5,3494900E-001	-5,3471762E-001	-1,050648288219236E-001	1,000000000000000E+000	5,6241141E-005	40	5,6180015E-005
2	0	0	1	1	6,867799826504779E+000	-5,2165586E-001	-5,2142459E-001	-1,024625838423766E-001	1,000000000000000E+000	5,3483145E-005	40	5,3426509E-005
2	0	0	1	1	6,894399825832807E+000	-5,0832933E-001	-5,0812930E-001	-9,984783430118105E-002	1,000000000000000E+000	5,0794872E-005	40	5,0735609E-005
2	0	0	1	1	6,921199825155782E+000	-4,9493629E-001	-4,9470538E-001	-9,717112575793485E-002	1,000000000000000E+000	4,8157297E-005	40	4,8071077E-005
2	0	0	1	1	6,947799824483809E+000	-4,8164308E-001	-4,8144346E-001	-9,454326412330055E-002	1,000000000000000E+000	4,5609551E-005	40	4,5517238E-005
2	0	0	1	1	6,974399823811837E+000	-4,6834993E-001	-4,6814021E-001	-9,191776220783709E-002	1,000000000000000E+000	4,3131582E-005	40	4,3030403E-005
2	0	0	1	1	7,001099823137338E+000	-4,5499009E-001	-4,5476550E-001	-8,926802216567370E-002	1,000000000000000E+000	4,0714756E-005	40	4,0596016E-005
2	0	0	1	1	7,027799822462839E+000	-4,4163033E-001	-4,4139159E-001	-8,667063241591699E-002	1,000000000000000E+000	3,8368475E-005	40	3,8255686E-005
2	0	0	1	1	7,054399821790867E+000	-4,2833713E-001	-4,2810899E-001	-8,400598700100059E-002	1,000000000000000E+000	3,6100661E-005	40	3,5963720E-005
2	0	0	1	1	7,080999821118894E+000	-4,1504398E-001	-4,1485578E-001	-8,140485834543709E-002	1,000000000000000E+000	3,3902797E-005	40	3,3771277E-005
2	0	0	1	1	7,107799820441869E+000	-4,0165085E-001	-4,0147561E-001	-7,876528741811234E-002	1,000000000000000E+000	3,1758882E-005	40	3,1622341E-005
2	0	0	1	1	7,134399819769897E+000	-3,8832438E-001	-3,8812506E-001	-7,610595364337003E-002	1,000000000000000E+000	2,9701359E-005	40	2,9538627E-005
2	0	0	1	1	7,160999819097924E+000	-3,7503120E-001	-3,7483236E-001	-7,350743738740373E-002	1,000000000000000E+000	2,7713977E-005	40	2,7552966E-005
2	0	0	1	1	7,187599818425952E+000	-3,6173806E-001	-3,6158746E-001	-7,085784417286045E-002	1,000000000000000E+000	2,5796366E-005	40	2,5621308E-005
2	0	0	1	1	7,214399817748927E+000	-3,4834489E-001	-3,4812459E-001	-6,821925976837498E-002	1,000000000000000E+000	2,3934950E-005	40	2,3748802E-005
2	0	0	1	1	7,240999817076954E+000	-3,3505175E-001	-3,3481330E-001	-6,556988382944828E-002	1,000000000000000E+000	2,2157779E-005	40	2,1953669E-005
2	0	0	1	1	7,267599816404982E+000	-3,2172528E-001	-3,2148448E-001	-6,292255262960669E-002	1,000000000000000E+000	2,0450883E-005	40	2,0228625E-005
2	0	0	1	1	7,294199815733009E+000	-3,0843207E-001	-3,0822062E-001	-6,030372691263119E-002	1,000000000000000E+000	1,8813877E-005	40	1,8586852E-005
2	0	0	1	1	7,320999815055984E+000	-2,9503897E-001	-2,9473987E-001	-5,762705000524881E-002	1,000000000000000E+000	1,7235061E-005	40	1,6984990E-005
2	0	0	1	1	7,347599814384012E+000	-2,8174579E-001	-2,8147897E-001	-5,501538435637471E-002	1,000000000000000E+000	1,5738766E-005	40	1,5485673E-005
2	0	0	1	1	7,374199813712039E+000	-2,6845261E-001	-2,6820716E-001	-5,239917573441433E-002	1,000000000000000E+000	1,4311965E-005	40	1,4053834E-005
2	0	0	1	1	7,400799813040067E+000	-2,5512615E-001	-2,5490668E-001	-4,977198258469173E-002	1,000000000000000E+000	1,2955064E-005	40	1,2687211E-005
2	0	0	1	1	7,427599812363042E+000	-2,4173301E-001	-2,4152945E-001	-4,712840038749455E-002	1,000000000000000E+000	1,1658663E-005	40	1,1382896E-005
2	0	0	1	1	7,454199811691069E+000	-2,2843984E-001	-2,2825690E-001	-4,450483839464126E-002	1,000000000000000E+000	1,0442124E-005	40	1,0158536E-005
2	0	0	1	1	7,480799811019097E+000	-2,1514669E-001	-2,1494363E-001	-4,189139185279278E-002	1,000000000000000E+000	9,2952278E-006	40	9,0042877E-006
2	0	0	1	1	7,507599810342072E+000	-2,0175357E-001	-2,0153777E-001	-3,922754148855634E-002	1,000000000000000E+000	8,2105198E-006	40	7,9058309E-006
2	0	0	1	1	7,534199809670099E+000	-1,8842708E-001	-1,8821976E-001	-3,657447919977119E-002	1,000000000000000E+000	7,2043322E-006	40	6,8840395E-006
2	0	0	1	1	7,590799808240263E+000	-1,6014160E-001	-1,5994406E-001	-3,106261345965322E-002	1,000000000000000E+000	5,2362739E-006	41	4,9682803E-006
2	0	0	1	1	7,617399807568290E+000	-1,4684844E-001	-1,4660916E-001	-2,844004363238734E-002	1,000000000000000E+000	4,4469043E-006	41	4,1695707E-006
2	0	0	1	1	7,644199806891265E+000	-1,3345534E-001	-1,3323610E-001	-2,579376153541180E-002	1,000000000000000E+000	3,7222314E-006	41	3,4366601E-006
2	0	0	1	1	7,670799806219293E+000	-1,2012884E-001	-1,1988534E-001	-2,315135747364061E-002	1,000000000000000E+000	3,0734138E-006	41	2,7755084E-006
2	0	0	1	1	7,697399805547320E+000	-1,0683568E-001	-1,0663994E-001	-2,053278213206788E-002	1,000000000000000E+000	2,4945043E-006	41	2,1896146E-006
2	0	0	1	1	7,723999804875348E+000	-9,3542509E-002	-9,3317159E-002	-1,790035718173991E-002	1,000000000000000E+000	1,9854440E-006	41	1,6704105E-006
2	0	0	1	1	7,750799804198323E+000	-8,0149397E-002	-7,9941496E-002	-1,525587912231763E-002	1,000000000000000E+000	1,5431309E-006	41	1,2195778E-006
2	0	0	1	1	7,777399803526350E+000	-6,6845119E-002	-6,6669390E-002	-1,263104660489868E-002	1,000000000000000E+000	1,1742512E-006	41	8,4210416E-007
2	0	0	1	1	7,803999802854378E+000	-5,3529739E-002	-5,3328048E-002	-9,995455736740627E-003	1,000000000000000E+000	8,7543179E-007	41	5,3303813E-007
2	0	0	1	1	7,830599802182405E+000	-4,0236562E-002	-4,0048063E-002	-7,361039396710095E-003	1,000000000000000E+000	6,4647878E-007	41	2,9479537E-007
2	0	0	1	1	7,857399801505380E+000	-2,6843451E-002	-2,6606217E-002	-4,719059033474565E-003	1,000000000000000E+000	4,8668289E-007	41	1,2555631E-007
2	0	0	1	1	7,883999800833408E+000	-1,3550282E-002	-1,3328452E-002	-2,094688097592244E-003	1,000000000000000E+000	3,9813483E-007	41	2,7918949E-008
2	1	0	1	1	7,908899800204381E+000	-1,0951430E-003	-9,1277156E-004	3,664973459255915E-004	1,000000000000000E+000	3,7823199E-007	41	-3,3452835E-010
2	1	0	1	1	7,910999800151330E+000	5,7214929E-005	1,1606221E-004	5,750339478254318E-004	1,000000000000000E+000	3,7931065E-007	41	6,6739711E-011