File: failing_datasets/2024-01-17 15_21_57 ec-included/2024-01-17 15_21_57 ec-included_01_C01.mpt
EC-Lab ASCII FILE
Nb header lines : 64

Cyclic Voltammetry

Run on channel : 1 (SN 5836)
User :
Electrode connection : standard
Potential control : Ewe
Ewe ctrl range : min = -2,50 V, max = 2,50 V
Ewe,I filtering : 50 kHz
Safety Limits :
	Do not start on E overload
Channel : Grounded
Acquisition started on : 01/17/2024 15:22:05.748
Technique started on : 01/17/2024 15:22:05.748
Loaded Setting File :  NONE
Saved on :
	File : 2024-01-17 15_21_57 ec-included_01_C01.mpr
	Directory : C:\Users\Spectro Inlets\Spectro Inlets Dropbox\03 LGA\In-line MS\Chip testing on EC-MS setup\failing_datasets\2024-01-17 15_21_57 ec-included\
	Host : 192.168.1.105
Device : SP-200 (SN 0763)
Address : USB
EC-Lab for windows v11.43 (software)
Internet server v11.40 (firmware)
Command interpretor v11.43 (firmware)
Electrode material :
Initial state :
Electrolyte :
Comments :
Cable : standard
Reference electrode : SCE Saturated Calomel Electrode (0,241 V)
Electrode surface area : 0,001 cm²
Characteristic mass : 0,001 g
Equivalent Weight : 0,000 g/eq.
Density : 0,000 g/cm3
Volume (V) : 0,001 cm³
Text export
   Mode : Standard
   Time format : Elapsed
Cycle Definition : Charge/Discharge alternance
Ei (V)              0,000
vs.                 Eoc
dE/dt               20,000
dE/dt unit          mV/s
E1 (V)              1,000
vs.                 Ref
Step percent        50
N                   10
E range min (V)     -2,500
E range max (V)     2,500
I Range             Auto
I Range min         Unset
I Range max         Unset
I Range init        Unset
Bandwidth           8
E2 (V)              -1,000
vs.                 Ref
nc cycles           0
Reverse Scan        1
Ef (V)              0,000
vs.                 Eoc

mode	ox/red	error	control changes	counter inc.	time/s	control/V	Ewe/V	<I>/mA	cycle number	(Q-Qo)/C	I Range	P/W
2	0	0	1	0	0,000000000000000E+000	-2,0176152E-004	-1,7848902E-004	-1,088311728381086E-005	1,000000000000000E+000	0,0000000E+000	44	1,9425169E-012
2	1	0	1	0	7,749999804218533E-002	1,3474410E-003	1,4014549E-003	3,240711851133352E-004	1,000000000000000E+000	1,5205945E-008	43	4,5417115E-010
2	1	0	1	0	1,774999955159728E-001	3,3464117E-003	3,4118295E-003	7,173309866091038E-004	1,000000000000000E+000	6,8514225E-008	43	2,4474109E-009
2	1	0	1	0	2,924999926108285E-001	5,6452290E-003	5,7089878E-003	1,167851735535260E-003	1,000000000000000E+000	1,7946718E-007	43	6,6672512E-009
2	1	0	1	0	4,072999897107366E-001	7,9440447E-003	8,0016041E-003	1,613635736349459E-003	1,000000000000000E+000	3,3859934E-007	42	1,2911674E-008
2	1	0	1	0	5,072999871845241E-001	9,9430149E-003	1,0007097E-002	2,007077656108533E-003	1,000000000000000E+000	5,2171492E-007	42	2,0085022E-008
2	1	0	1	0	6,072999846583116E-001	1,1941987E-002	1,2000493E-002	2,401649191462497E-003	1,000000000000000E+000	7,4424128E-007	42	2,8820974E-008
2	1	0	1	0	7,072999821320991E-001	1,3940956E-002	1,4001740E-002	2,794912423403871E-003	1,000000000000000E+000	1,0061192E-006	42	3,9133639E-008
2	1	0	1	0	8,070999796109390E-001	1,5939929E-002	1,6000016E-002	3,189092743990909E-003	1,000000000000000E+000	1,3067512E-006	42	5,1025534E-008
2	1	0	1	0	9,070999770847266E-001	1,7938901E-002	1,8000839E-002	3,582133574700164E-003	1,000000000000000E+000	1,6473304E-006	42	6,4481412E-008
2	1	0	1	0	1,007099974558514E+000	1,9937869E-002	2,0024374E-002	3,975846000011427E-003	1,000000000000000E+000	2,0272873E-006	42	7,9613827E-008
2	1	0	1	0	1,107099972032302E+000	2,1936839E-002	2,2014376E-002	4,369649648584460E-003	1,000000000000000E+000	2,4465812E-006	42	9,6195109E-008
2	1	0	1	0	1,206899969511142E+000	2,3935813E-002	2,4000978E-002	4,759555339222565E-003	1,000000000000000E+000	2,9041414E-006	42	1,1423398E-007
2	1	0	1	0	1,306899966984929E+000	2,5934780E-002	2,5991822E-002	5,153957837912324E-003	1,000000000000000E+000	3,4018308E-006	42	1,3396075E-007
2	1	0	1	0	1,406899964458717E+000	2,7933754E-002	2,7985429E-002	5,546022380089943E-003	1,000000000000000E+000	3,9388228E-006	42	1,5520781E-007
2	1	0	1	0	1,506899961932504E+000	2,9932724E-002	3,0000053E-002	5,940186259707561E-003	1,000000000000000E+000	4,5151833E-006	42	1,7820591E-007
2	1	0	1	0	1,606699959411344E+000	3,1931695E-002	3,1990472E-002	6,334144423750271E-003	1,000000000000000E+000	5,1297261E-006	42	2,0263226E-007
2	1	0	1	0	1,706699956885132E+000	3,3930663E-002	3,3993207E-002	6,726578086036827E-003	1,000000000000000E+000	5,7848056E-006	42	2,2865797E-007
2	1	0	1	0	1,806699954358919E+000	3,5929635E-002	3,5996579E-002	7,119608399484140E-003	1,000000000000000E+000	6,4791070E-006	42	2,5628154E-007
2	1	0	1	0	1,906599951835233E+000	3,7926823E-002	3,7994534E-002	7,511931567590557E-003	1,000000000000000E+000	7,2120069E-006	42	2,8541234E-007
2	1	0	1	0	2,006499949311547E+000	3,9927579E-002	3,9982520E-002	7,906451583106933E-003	1,000000000000000E+000	7,9841848E-006	42	3,1611987E-007
2	1	0	1	0	2,106499946785334E+000	4,1926548E-002	4,1975066E-002	8,298055248343626E-003	1,000000000000000E+000	8,7964027E-006	42	3,4831143E-007
2	1	0	1	0	2,206499944259122E+000	4,3925520E-002	4,4003274E-002	8,692485432321664E-003	1,000000000000000E+000	9,6480017E-006	42	3,8249783E-007
2	1	0	1	0	2,306399941735435E+000	4,5923602E-002	4,5991614E-002	9,085723470038776E-003	1,000000000000000E+000	1,0538063E-005	42	4,1786708E-007
2	1	0	1	0	2,406299939211749E+000	4,7923461E-002	4,8000887E-002	9,478885955306632E-003	1,000000000000000E+000	1,1467393E-005	42	4,5499493E-007
2	1	0	1	0	2,506299936685537E+000	4,9922429E-002	4,9983028E-002	9,870572624667701E-003	1,000000000000000E+000	1,2436877E-005	42	4,9336109E-007
2	1	0	1	0	2,606299934159324E+000	5,1921401E-002	5,1985335E-002	1,026379193192245E-002	1,000000000000000E+000	1,3445626E-005	42	5,3356666E-007
2	1	0	1	0	2,706199931635638E+000	5,3920373E-002	5,3976737E-002	1,065612506671021E-002	1,000000000000000E+000	1,4492658E-005	42	5,7518287E-007
2	1	0	1	0	2,821099928733020E+000	5,6219190E-002	5,6306113E-002	1,111509536054429E-002	1,000000000000000E+000	1,5746931E-005	42	6,2584780E-007
2	1	0	1	0	2,936099925827875E+000	5,8518011E-002	5,8575083E-002	1,156535587506369E-002	1,000000000000000E+000	1,7051210E-005	41	6,7744168E-007
2	1	0	1	0	3,036099923301663E+000	6,0516980E-002	6,0584191E-002	1,196116932745399E-002	1,000000000000000E+000	1,8229714E-005	41	7,2465775E-007
2	1	0	1	0	3,135899920780503E+000	6,2515952E-002	6,2566757E-002	1,235343485475626E-002	1,000000000000000E+000	1,9445113E-005	41	7,7291435E-007
2	1	0	1	0	3,235899918254290E+000	6,4514920E-002	6,4582229E-002	1,274846770792029E-002	1,000000000000000E+000	2,0702251E-005	41	8,2332446E-007
2	1	0	1	0	3,335899915728078E+000	6,6513881E-002	6,6599816E-002	1,314043591911382E-002	1,000000000000000E+000	2,1998881E-005	41	8,7515059E-007
2	1	0	1	0	3,435899913201865E+000	6,8512857E-002	6,8573475E-002	1,353299274557723E-002	1,000000000000000E+000	2,3334665E-005	41	9,2800434E-007
2	1	0	1	0	3,535699910680705E+000	7,0511825E-002	7,0569843E-002	1,392902047114659E-002	1,000000000000000E+000	2,4707195E-005	41	9,8296880E-007
2	1	0	1	0	3,635699908154493E+000	7,2510801E-002	7,2577663E-002	1,432044811641663E-002	1,000000000000000E+000	2,6121737E-005	41	1,0393446E-006
2	1	0	1	0	3,735699905628280E+000	7,4509777E-002	7,4583590E-002	1,471146274383910E-002	1,000000000000000E+000	2,7575479E-005	41	1,0972337E-006
2	1	0	1	0	3,835699903102068E+000	7,6508746E-002	7,6551080E-002	1,510492959965229E-002	1,000000000000000E+000	2,9068398E-005	41	1,1562987E-006
2	1	0	1	0	3,935499900580908E+000	7,8507714E-002	7,8571871E-002	1,549607951245788E-002	1,000000000000000E+000	3,0597479E-005	41	1,2175559E-006
2	1	0	1	0	4,035499898054695E+000	8,0506682E-002	8,0555499E-002	1,589087578812959E-002	1,000000000000000E+000	3,2169042E-005	41	1,2800974E-006
2	1	0	1	0	4,135499895528483E+000	8,2505658E-002	8,2557589E-002	1,628356282297452E-002	1,000000000000000E+000	3,3779928E-005	41	1,3443317E-006
2	1	0	1	0	4,235499893002270E+000	8,4504627E-002	8,4561393E-002	1,667878043587769E-002	1,000000000000000E+000	3,5430166E-005	41	1,4103809E-006
2	1	0	1	0	4,335299890481110E+000	8,6503603E-002	8,6550541E-002	1,707259702272018E-002	1,000000000000000E+000	3,7116464E-005	41	1,4776425E-006
2	1	0	1	0	4,435299887954898E+000	8,8502571E-002	8,8560708E-002	1,746536389260581E-002	1,000000000000000E+000	3,8845399E-005	41	1,5467450E-006
2	1	0	1	0	4,535299885428685E+000	9,0501539E-002	9,0551339E-002	1,786000422995393E-002	1,000000000000000E+000	4,0613781E-005	41	1,6172473E-006
2	1	0	1	0	4,635199882904999E+000	9,2499182E-002	9,2560180E-002	1,825193300021552E-002	1,000000000000000E+000	4,2419695E-005	41	1,6894022E-006
2	1	0	1	0	4,735099880381313E+000	9,4499484E-002	9,4576553E-002	1,864321317299517E-002	1,000000000000000E+000	4,4264780E-005	41	1,7632108E-006
2	1	0	1	0	4,835099877855100E+000	9,6498452E-002	9,6547864E-002	1,903678050169860E-002	1,000000000000000E+000	4,6150893E-005	41	1,8379606E-006
2	1	0	1	0	4,935099875328888E+000	9,8497413E-002	9,8571822E-002	1,942985561995386E-002	1,000000000000000E+000	4,8076268E-005	41	1,9152362E-006
2	1	0	1	0	5,034999872805201E+000	1,0049595E-001	1,0054950E-001	1,982589664394216E-002	1,000000000000000E+000	5,0039147E-005	41	1,9934841E-006
2	1	0	1	0	5,134899870281515E+000	1,0249536E-001	1,0256349E-001	2,021683618012404E-002	1,000000000000000E+000	5,2041418E-005	41	2,0735092E-006
2	1	0	1	0	5,234899867755303E+000	1,0449433E-001	1,0456134E-001	2,061254527264586E-002	1,000000000000000E+000	5,4084983E-005	41	2,1552755E-006
2	1	0	1	0	5,334899865229090E+000	1,0649330E-001	1,0655496E-001	2,100396539403675E-002	1,000000000000000E+000	5,6167937E-005	41	2,2380766E-006
2	1	0	1	0	5,434799862705404E+000	1,0849317E-001	1,0856021E-001	2,139749884005626E-002	1,000000000000000E+000	5,8287995E-005	41	2,3229170E-006
2	1	0	1	0	5,534699860181718E+000	1,1049125E-001	1,1055299E-001	2,179116665609870E-002	1,000000000000000E+000	6,0447448E-005	41	2,4090787E-006
2	1	0	1	0	5,634699857655505E+000	1,1249021E-001	1,1256208E-001	2,218406274052403E-002	1,000000000000000E+000	6,2648309E-005	41	2,4970843E-006
2	1	0	1	0	5,734699855129293E+000	1,1448919E-001	1,1455908E-001	2,257436900011578E-002	1,000000000000000E+000	6,4888358E-005	41	2,5860991E-006
2	1	0	1	0	5,834599852605606E+000	1,1648995E-001	1,1656509E-001	2,296747988295220E-002	1,000000000000000E+000	6,7165303E-005	41	2,6772063E-006
2	1	0	1	0	5,934499850081920E+000	1,1848712E-001	1,1855460E-001	2,336153383280536E-002	1,000000000000000E+000	6,9481532E-005	41	2,7696174E-006
2	1	0	1	0	6,034499847555708E+000	1,2048610E-001	1,2055606E-001	2,375649284847358E-002	1,000000000000000E+000	7,1839539E-005	41	2,8639890E-006
2	1	0	1	0	6,134499845029495E+000	1,2248507E-001	1,2257195E-001	2,414904638081439E-002	1,000000000000000E+000	7,4236814E-005	41	2,9599955E-006
2	1	0	1	0	6,234299842508335E+000	1,2448405E-001	1,2454347E-001	2,454251605430963E-002	1,000000000000000E+000	7,6668555E-005	41	3,0566100E-006
2	1	0	1	0	6,334299839982123E+000	1,2648301E-001	1,2654938E-001	2,493473672290775E-002	1,000000000000000E+000	7,9144491E-005	41	3,1554755E-006
2	1	0	1	0	6,434299837455910E+000	1,2848198E-001	1,2854406E-001	2,532675722613936E-002	1,000000000000000E+000	8,1659593E-005	41	3,2556043E-006
2	1	0	1	0	6,534299834929698E+000	1,3048095E-001	1,3054296E-001	2,572147749554106E-002	1,000000000000000E+000	8,4214189E-005	41	3,3577578E-006
2	1	0	1	0	6,634099832408538E+000	1,3247994E-001	1,3252978E-001	2,611317478672222E-002	1,000000000000000E+000	8,6802786E-005	41	3,4607733E-006
2	1	0	1	0	6,734099829882325E+000	1,3447890E-001	1,3454060E-001	2,650326930624608E-002	1,000000000000000E+000	8,9435707E-005	41	3,5657658E-006
2	1	0	1	0	6,834099827356113E+000	1,3647786E-001	1,3655648E-001	2,689700459423305E-002	1,000000000000000E+000	9,2107788E-005	41	3,6729602E-006
2	1	0	1	0	6,934099824829900E+000	1,3847683E-001	1,3854733E-001	2,728880377900266E-002	1,000000000000000E+000	9,4819123E-005	41	3,7807908E-006
2	1	0	1	0	7,033899822308740E+000	1,4047581E-001	1,4054346E-001	2,768538262764059E-002	1,000000000000000E+000	9,7564480E-005	41	3,8909993E-006
2	1	0	1	0	7,133899819782528E+000	1,4247479E-001	1,4253984E-001	2,807831332622168E-002	1,000000000000000E+000	1,0035465E-004	41	4,0022783E-006
2	1	0	1	0	7,233899817256315E+000	1,4447375E-001	1,4452092E-001	2,847048334121971E-002	1,000000000000000E+000	1,0318417E-004	41	4,1145804E-006
2	1	0	1	0	7,333899814730103E+000	1,4647271E-001	1,4654894E-001	2,886433785574305E-002	1,000000000000000E+000	1,0605307E-004	41	4,2300380E-006
2	1	0	1	0	7,433699812208943E+000	1,4847170E-001	1,4852639E-001	2,925762174116392E-002	1,000000000000000E+000	1,0895548E-004	41	4,3455289E-006
2	1	0	1	0	7,533699809682730E+000	1,5047066E-001	1,5052532E-001	2,965178445016076E-002	1,000000000000000E+000	1,1190314E-004	41	4,4633443E-006
2	1	0	1	0	7,633699807156518E+000	1,5246964E-001	1,5253443E-001	3,004254824136976E-002	1,000000000000000E+000	1,1488989E-004	41	4,5825227E-006
2	1	0	1	0	7,733699804630305E+000	1,5446860E-001	1,5451869E-001	3,043141685581457E-002	1,000000000000000E+000	1,1791569E-004	41	4,7022227E-006
2	1	0	1	0	7,833499802109145E+000	1,5646757E-001	1,5652205E-001	3,082469975817259E-002	1,000000000000000E+000	1,2097453E-004	41	4,8247452E-006
2	1	0	1	0	7,933499799582933E+000	1,5846655E-001	1,5850696E-001	3,121853713808531E-002	1,000000000000000E+000	1,2407878E-004	41	4,9483556E-006
2	1	0	1	0	8,033499797056720E+000	1,6046554E-001	1,6050884E-001	3,161219827813544E-002	1,000000000000000E+000	1,2722249E-004	41	5,0740373E-006
2	1	0	1	0	8,133399794533034E+000	1,6246316E-001	1,6250502E-001	3,200548563250633E-002	1,000000000000000E+000	1,3040220E-004	41	5,2010519E-006
2	1	0	1	0	8,233299792009348E+000	1,6446346E-001	1,6452153E-001	3,239896912472665E-002	1,000000000000000E+000	1,3362132E-004	41	5,3303279E-006
2	1	0	1	0	8,333299789483135E+000	1,6646242E-001	1,6651897E-001	3,279190583809943E-002	1,000000000000000E+000	1,3688300E-004	41	5,4604743E-006
2	1	0	1	0	8,433299786956923E+000	1,6846141E-001	1,6851173E-001	3,318660000459872E-002	1,000000000000000E+000	1,4018401E-004	41	5,5923315E-006
2	1	0	1	0	8,533199784433236E+000	1,7045993E-001	1,7052239E-001	3,358068233339179E-002	1,000000000000000E+000	1,4352112E-004	41	5,7262582E-006
2	1	0	1	0	8,633099781909550E+000	1,7245935E-001	1,7250086E-001	3,397265781165545E-002	1,000000000000000E+000	1,4689748E-004	41	5,8603127E-006
2	1	0	1	0	8,733099779383338E+000	1,7445831E-001	1,7451292E-001	3,436291103975631E-002	1,000000000000000E+000	1,5031631E-004	41	5,9967720E-006
2	1	0	1	0	8,833099776857125E+000	1,7645727E-001	1,7650291E-001	3,475453417868951E-002	1,000000000000000E+000	1,5377426E-004	41	6,1342766E-006
2	1	0	1	0	8,932999774333439E+000	1,7845671E-001	1,7851570E-001	3,514758059366291E-002	1,000000000000000E+000	1,5726790E-004	41	6,2743952E-006
2	1	0	1	0	9,032899771809753E+000	1,8045524E-001	1,8051474E-001	3,554279610290423E-002	1,000000000000000E+000	1,6080104E-004	41	6,4159985E-006
2	1	0	1	0	9,132899769283540E+000	1,8245418E-001	1,8249775E-001	3,593399339027842E-002	1,000000000000000E+000	1,6437691E-004	41	6,5578729E-006
2	1	0	1	0	9,232899766757328E+000	1,8445316E-001	1,8450600E-001	3,632775751477196E-002	1,000000000000000E+000	1,6799205E-004	41	6,7026890E-006
2	1	0	1	0	9,332799764233641E+000	1,8645392E-001	1,8649961E-001	3,671902479019989E-002	1,000000000000000E+000	1,7164281E-004	41	6,8480840E-006
2	1	0	1	0	9,432699761709955E+000	1,8845111E-001	1,8849047E-001	3,711358330178027E-002	1,000000000000000E+000	1,7533280E-004	41	6,9955568E-006
2	1	0	1	0	9,532699759183743E+000	1,9045009E-001	1,9050595E-001	3,750866620922111E-002	1,000000000000000E+000	1,7906603E-004	41	7,1456243E-006
2	1	0	1	0	9,632699756657530E+000	1,9244906E-001	1,9250800E-001	3,790048173525265E-002	1,000000000000000E+000	1,8283857E-004	41	7,2961457E-006
2	1	0	1	0	9,732499754136370E+000	1,9444802E-001	1,9449654E-001	3,829089239136219E-002	1,000000000000000E+000	1,8664256E-004	41	7,4474460E-006
2	1	0	1	0	9,832499751610158E+000	1,9644700E-001	1,9650646E-001	3,868335746746099E-002	1,000000000000000E+000	1,9049335E-004	41	7,6015294E-006
2	1	0	1	0	9,932499749083945E+000	1,9844596E-001	1,9849539E-001	3,907776876197511E-002	1,000000000000000E+000	1,9438349E-004	41	7,7567565E-006
2	1	0	1	0	1,003249974655773E+001	2,0044494E-001	2,0049474E-001	3,947401859504357E-002	1,000000000000000E+000	1,9831315E-004	41	7,9143329E-006
2	1	0	1	0	1,013229974403657E+001	2,0244391E-001	2,0250703E-001	3,986601945857920E-002	1,000000000000000E+000	2,0227423E-004	41	8,0731497E-006
2	1	0	1	0	1,023229974151036E+001	2,0444286E-001	2,0450997E-001	4,026135461215208E-002	1,000000000000000E+000	2,0628274E-004	41	8,2338483E-006
2	1	0	1	0	1,033229973898415E+001	2,0644183E-001	2,0650294E-001	4,065211872673703E-002	1,000000000000000E+000	2,1033050E-004	41	8,3947825E-006
2	1	0	1	0	1,043229973645794E+001	2,0844080E-001	2,0849253E-001	4,104659773185165E-002	1,000000000000000E+000	2,1441747E-004	41	8,5579095E-006
2	1	0	1	0	1,053209973393678E+001	2,1043979E-001	2,1050970E-001	4,144034494162990E-002	1,000000000000000E+000	2,1853570E-004	41	8,7235949E-006
2	1	0	1	0	1,063209973141056E+001	2,1243876E-001	2,1250838E-001	4,183290466769690E-002	1,000000000000000E+000	2,2270146E-004	41	8,8898432E-006
2	1	0	1	0	1,073209972888435E+001	2,1443772E-001	2,1449564E-001	4,222405266396156E-002	1,000000000000000E+000	2,2690630E-004	41	9,0568756E-006
2	1	0	1	0	1,083209972635814E+001	2,1643670E-001	2,1650283E-001	4,261650137724024E-002	1,000000000000000E+000	2,3115033E-004	41	9,2265927E-006
2	1	0	1	0	1,093189972383698E+001	2,1843567E-001	2,1850556E-001	4,301010037306696E-002	1,000000000000000E+000	2,3542513E-004	41	9,3979461E-006
2	1	0	1	0	1,103189972131077E+001	2,2043464E-001	2,2049874E-001	4,340337039644093E-002	1,000000000000000E+000	2,3974784E-004	41	9,5703881E-006
2	1	0	1	0	1,113189971878455E+001	2,2243361E-001	2,2249363E-001	4,379676144432154E-002	1,000000000000000E+000	2,4410989E-004	41	9,7445009E-006
2	1	0	1	0	1,123189971625834E+001	2,2443257E-001	2,2449827E-001	4,419153179818149E-002	1,000000000000000E+000	2,4851138E-004	41	9,9209228E-006
2	1	0	1	0	1,133169971373718E+001	2,2643155E-001	2,2648403E-001	4,458165728418084E-002	1,000000000000000E+000	2,5294328E-004	41	1,0097034E-005
2	1	0	1	0	1,143169971121097E+001	2,2843052E-001	2,2847529E-001	4,497479455097142E-002	1,000000000000000E+000	2,5742326E-004	41	1,0275629E-005
2	1	0	1	0	1,153169970868476E+001	2,3042949E-001	2,3048627E-001	4,536819600724362E-002	1,000000000000000E+000	2,6194251E-004	41	1,0456746E-005
2	1	0	1	0	1,163159970616107E+001	2,3242714E-001	2,3247026E-001	4,576016367030444E-002	1,000000000000000E+000	2,6649641E-004	41	1,0637877E-005
2	1	0	1	0	1,173149970363738E+001	2,3442744E-001	2,3447733E-001	4,615160802603452E-002	1,000000000000000E+000	2,7108949E-004	41	1,0821505E-005
2	1	0	1	0	1,183149970111117E+001	2,3642640E-001	2,3647667E-001	4,654468730505945E-002	1,000000000000000E+000	2,7572643E-004	41	1,1006733E-005
2	1	0	1	0	1,193149969858496E+001	2,3842537E-001	2,3848069E-001	4,693889107417171E-002	1,000000000000000E+000	2,8040272E-004	41	1,1194019E-005
2	1	0	1	0	1,203139969606127E+001	2,4042393E-001	2,4047595E-001	4,733178263526483E-002	1,000000000000000E+000	2,8511364E-004	41	1,1382155E-005
2	1	0	1	0	1,213129969353759E+001	2,4242331E-001	2,4247999E-001	4,772521373470906E-002	1,000000000000000E+000	2,8986382E-004	41	1,1572410E-005
2	1	0	1	0	1,223129969101137E+001	2,4442230E-001	2,4448444E-001	4,812027895133267E-002	1,000000000000000E+000	2,9465821E-004	41	1,1764660E-005
2	1	0	1	0	1,233129968848516E+001	2,4642128E-001	2,4648781E-001	4,851163655122814E-002	1,000000000000000E+000	2,9949192E-004	41	1,1957527E-005
2	1	0	1	0	1,243119968596147E+001	2,4842069E-001	2,4847761E-001	4,890855160546903E-002	1,000000000000000E+000	3,0436009E-004	41	1,2152680E-005
2	1	0	1	0	1,253109968343779E+001	2,5041920E-001	2,5047249E-001	4,930017221098154E-002	1,000000000000000E+000	3,0926766E-004	41	1,2348337E-005
2	1	0	1	0	1,263109968091158E+001	2,5241819E-001	2,5245714E-001	4,969221329385473E-002	1,000000000000000E+000	3,1421933E-004	41	1,2545154E-005
2	1	0	1	0	1,273109967838536E+001	2,5441715E-001	2,5446585E-001	5,008153732935050E-002	1,000000000000000E+000	3,1921006E-004	41	1,2744041E-005
2	1	0	1	0	1,283099967586168E+001	2,5641790E-001	2,5646299E-001	5,047431312700768E-002	1,000000000000000E+000	3,2423489E-004	41	1,2944794E-005
2	1	0	1	0	1,293089967333799E+001	2,5841507E-001	2,5847661E-001	5,086914603425963E-002	1,000000000000000E+000	3,2929907E-004	41	1,3148485E-005
2	1	0	1	0	1,303089967081178E+001	2,6041406E-001	2,6048720E-001	5,126270680274389E-002	1,000000000000000E+000	3,3440773E-004	41	1,3353279E-005
2	1	0	1	0	1,313089966828557E+001	2,6241302E-001	2,6247823E-001	5,165660144174822E-002	1,000000000000000E+000	3,3955573E-004	41	1,3558733E-005
2	1	0	1	0	1,323069966576440E+001	2,6441199E-001	2,6447228E-001	5,205001855372537E-002	1,000000000000000E+000	3,4473283E-004	41	1,3765787E-005
2	1	0	1	0	1,333069966323819E+001	2,6641098E-001	2,6648480E-001	5,244253592186243E-002	1,000000000000000E+000	3,4995959E-004	41	1,3975138E-005
2	1	0	1	0	1,343069966071198E+001	2,6840994E-001	2,6848197E-001	5,283841038881626E-002	1,000000000000000E+000	3,5522567E-004	41	1,4186160E-005
2	1	0	1	0	1,353069965818577E+001	2,7040890E-001	2,7046499E-001	5,322975818826658E-002	1,000000000000000E+000	3,6053106E-004	41	1,4396785E-005
2	1	0	1	0	1,363049965566461E+001	2,7240789E-001	2,7247325E-001	5,362384589561431E-002	1,000000000000000E+000	3,6586513E-004	41	1,4611063E-005
2	1	0	1	0	1,373049965313839E+001	2,7440685E-001	2,7446157E-001	5,401309840036195E-002	1,000000000000000E+000	3,7124901E-004	41	1,4824520E-005
2	1	0	1	0	1,383049965061218E+001	2,7640581E-001	2,7646747E-001	5,440581494217966E-002	1,000000000000000E+000	3,7667205E-004	41	1,5041438E-005
2	1	0	1	0	1,393049964808597E+001	2,7840480E-001	2,7847806E-001	5,479995871859566E-002	1,000000000000000E+000	3,8213440E-004	41	1,5260586E-005
2	1	0	1	0	1,403029964556481E+001	2,8040376E-001	2,8045785E-001	5,519395941626959E-002	1,000000000000000E+000	3,8762519E-004	41	1,5479580E-005
2	1	0	1	0	1,413029964303860E+001	2,8240275E-001	2,8247693E-001	5,558578789027202E-002	1,000000000000000E+000	3,9316618E-004	41	1,5701702E-005
2	1	0	1	0	1,423029964051238E+001	2,8440171E-001	2,8445697E-001	5,597933223988460E-002	1,000000000000000E+000	3,9874655E-004	41	1,5923712E-005
2	1	0	1	0	1,433029963798617E+001	2,8640068E-001	2,8645906E-001	5,637287068249736E-002	1,000000000000000E+000	4,0436620E-004	41	1,6148519E-005
2	1	0	1	0	1,443009963546501E+001	2,8839964E-001	2,8846371E-001	5,676615778011884E-002	1,000000000000000E+000	4,1001386E-004	41	1,6374977E-005
2	1	0	1	0	1,453009963293880E+001	2,9039863E-001	2,9046455E-001	5,716118178571813E-002	1,000000000000000E+000	4,1571227E-004	41	1,6603297E-005
2	1	0	1	0	1,463009963041259E+001	2,9239759E-001	2,9246473E-001	5,755223671871193E-002	1,000000000000000E+000	4,2144992E-004	41	1,6832000E-005
2	1	0	1	0	1,473009962788638E+001	2,9439658E-001	2,9445365E-001	5,794211714183595E-002	1,000000000000000E+000	4,2722657E-004	41	1,7061267E-005
2	1	0	1	0	1,482989962536521E+001	2,9639557E-001	2,9644537E-001	5,833376025677550E-002	1,000000000000000E+000	4,3303077E-004	41	1,7292774E-005
2	1	0	1	0	1,492989962283900E+001	2,9839450E-001	2,9845721E-001	5,872886564962043E-002	1,000000000000000E+000	4,3888588E-004	41	1,7528053E-005
2	1	0	1	0	1,502989962031279E+001	3,0039349E-001	3,0045992E-001	5,912010999465434E-002	1,000000000000000E+000	4,4478039E-004	41	1,7763223E-005
2	1	0	1	0	1,512979961778910E+001	3,0239111E-001	3,0244860E-001	5,951382279892070E-002	1,000000000000000E+000	4,5070818E-004	41	1,7999873E-005
2	1	0	1	0	1,522969961526542E+001	3,0439141E-001	3,0446583E-001	5,990817336607013E-002	1,000000000000000E+000	4,5667539E-004	41	1,8239993E-005
2	1	0	1	0	1,532969961273920E+001	3,0639040E-001	3,0644715E-001	6,030146874211484E-002	1,000000000000000E+000	4,6268789E-004	41	1,8479213E-005
2	1	0	1	0	1,542969961021299E+001	3,0838937E-001	3,0845049E-001	6,069654225440797E-002	1,000000000000000E+000	4,6873986E-004	41	1,8721877E-005
2	1	0	1	0	1,552959960768931E+001	3,1038791E-001	3,1046027E-001	6,108951926130217E-002	1,000000000000000E+000	4,7482518E-004	41	1,8965869E-005
2	1	0	1	0	1,562949960516562E+001	3,1238732E-001	3,1246066E-001	6,148193618800080E-002	1,000000000000000E+000	4,8094976E-004	41	1,9210687E-005
2	1	0	1	0	1,572949960263941E+001	3,1438628E-001	3,1445828E-001	6,187267461791635E-002	1,000000000000000E+000	4,8711951E-004	41	1,9456375E-005
2	1	0	1	0	1,582949960011319E+001	3,1638524E-001	3,1642836E-001	6,226244511910611E-002	1,000000000000000E+000	4,9332838E-004	41	1,9701603E-005
2	1	0	1	0	1,592939959758951E+001	3,1838512E-001	3,1846398E-001	6,265941297094185E-002	1,000000000000000E+000	4,9957033E-004	41	1,9954767E-005
2	1	0	1	0	1,602929959506582E+001	3,2038319E-001	3,2044762E-001	6,305175964479093E-002	1,000000000000000E+000	5,0585164E-004	41	2,0204787E-005
2	1	0	1	0	1,612929959253961E+001	3,2238215E-001	3,2244822E-001	6,344473349033945E-002	1,000000000000000E+000	5,1217852E-004	41	2,0457641E-005
2	1	0	1	0	1,622929959001340E+001	3,2438111E-001	3,2446200E-001	6,383956477253006E-002	1,000000000000000E+000	5,1854481E-004	41	2,0713513E-005
2	1	0	1	0	1,632919958748971E+001	3,2638189E-001	3,2646191E-001	6,423132264603237E-002	1,000000000000000E+000	5,2494399E-004	41	2,0969081E-005
2	1	0	1	0	1,642909958496602E+001	3,2837906E-001	3,2845706E-001	6,462560065470102E-002	1,000000000000000E+000	5,3138251E-004	41	2,1226735E-005
2	1	0	1	0	1,652909958243981E+001	3,3037803E-001	3,3044156E-001	6,501741153705454E-002	1,000000000000000E+000	5,3786684E-004	41	2,1484455E-005
2	1	0	1	0	1,662909957991360E+001	3,3237702E-001	3,3243003E-001	6,540822987099768E-002	1,000000000000000E+000	5,4439018E-004	41	2,1743661E-005
2	1	0	1	0	1,672889957739244E+001	3,3437601E-001	3,3442831E-001	6,579902809527166E-002	1,000000000000000E+000	5,5093941E-004	41	2,2005057E-005
2	1	0	1	0	1,682889957486623E+001	3,3637497E-001	3,3643383E-001	6,619128077808378E-002	1,000000000000000E+000	5,5754103E-004	41	2,2268987E-005
2	1	0	1	0	1,692889957234001E+001	3,3837390E-001	3,3843401E-001	6,658696284069221E-002	1,000000000000000E+000	5,6418206E-004	41	2,2535292E-005
2	1	0	1	0	1,702889956981380E+001	3,4037289E-001	3,4045988E-001	6,698118840102807E-002	1,000000000000000E+000	5,7086250E-004	41	2,2804408E-005
2	1	0	1	0	1,712869956729264E+001	3,4237185E-001	3,4244308E-001	6,737366233331427E-002	1,000000000000000E+000	5,7756883E-004	41	2,3071645E-005
2	1	0	1	0	1,722869956476643E+001	3,4437084E-001	3,4444520E-001	6,776842355072765E-002	1,000000000000000E+000	5,8432814E-004	41	2,3342509E-005
2	1	0	1	0	1,732869956224022E+001	3,4636980E-001	3,4644854E-001	6,816036807787063E-002	1,000000000000000E+000	5,9112662E-004	41	2,3614060E-005
2	1	0	1	0	1,742869955971400E+001	3,4836879E-001	3,4844789E-001	6,855493087183562E-002	1,000000000000000E+000	5,9796445E-004	41	2,3887820E-005
2	1	0	1	0	1,752849955719284E+001	3,5036772E-001	3,5043275E-001	6,894887927747179E-002	1,000000000000000E+000	6,0482795E-004	41	2,4161945E-005
2	1	0	1	0	1,762849955466663E+001	3,5236672E-001	3,5244527E-001	6,933837911734986E-002	1,000000000000000E+000	6,1174441E-004	41	2,4437984E-005
2	1	0	1	0	1,772849955214042E+001	3,5436571E-001	3,5442489E-001	6,973170515805213E-002	1,000000000000000E+000	6,1870000E-004	41	2,4714653E-005
2	1	0	1	0	1,782849954961421E+001	3,5636467E-001	3,5641617E-001	7,012184785196052E-002	1,000000000000000E+000	6,2569475E-004	41	2,4992560E-005
2	1	0	1	0	1,792829954709305E+001	3,5836363E-001	3,5843244E-001	7,051749779256422E-002	1,000000000000000E+000	6,3271471E-004	41	2,5275758E-005
2	1	0	1	0	1,802829954456683E+001	3,6036256E-001	3,6041227E-001	7,091036381165455E-002	1,000000000000000E+000	6,3978817E-004	41	2,5556965E-005
2	1	0	1	0	1,812829954204062E+001	3,6236155E-001	3,6244220E-001	7,130376034830177E-002	1,000000000000000E+000	6,4690097E-004	41	2,5843492E-005
2	1	0	1	0	1,822829953951441E+001	3,6436054E-001	3,6442325E-001	7,169697951973864E-002	1,000000000000000E+000	6,5405312E-004	41	2,6128046E-005
2	1	0	1	0	1,832809953699325E+001	3,6635953E-001	3,6643660E-001	7,209101271022261E-002	1,000000000000000E+000	6,6123030E-004	41	2,6416785E-005
2	1	0	1	0	1,842809953446704E+001	3,6835849E-001	3,6843234E-001	7,248592863066317E-002	1,000000000000000E+000	6,6846120E-004	41	2,6706160E-005
2	1	0	1	0	1,852809953194082E+001	3,7035748E-001	3,7043253E-001	7,287756886540175E-002	1,000000000000000E+000	6,7573145E-004	41	2,6996222E-005
2	1	0	1	0	1,862799952941714E+001	3,7235513E-001	3,7242806E-001	7,326928495443438E-002	1,000000000000000E+000	6,8303355E-004	41	2,7287537E-005
2	1	0	1	0	1,872789952689345E+001	3,7435541E-001	3,7443101E-001	7,366107186061099E-002	1,000000000000000E+000	6,9037476E-004	41	2,7580991E-005
2	1	0	1	0	1,882789952436724E+001	3,7635437E-001	3,7642694E-001	7,405334605007530E-002	1,000000000000000E+000	6,9776253E-004	41	2,7875674E-005
2	1	0	1	0	1,892789952184103E+001	3,7835336E-001	3,7842160E-001	7,444793611971845E-002	1,000000000000000E+000	7,0518965E-004	41	2,8172708E-005
2	1	0	1	0	1,902779951931734E+001	3,8035187E-001	3,8042232E-001	7,484018236551293E-002	1,000000000000000E+000	7,1264856E-004	41	2,8470877E-005
2	1	0	1	0	1,912769951679365E+001	3,8235125E-001	3,8241372E-001	7,523270841274010E-002	1,000000000000000E+000	7,2014675E-004	41	2,8770019E-005
2	1	0	1	0	1,922769951426744E+001	3,8435024E-001	3,8442004E-001	7,562579224920910E-002	1,000000000000000E+000	7,2769175E-004	41	2,9072069E-005
2	1	0	1	0	1,932769951174123E+001	3,8634923E-001	3,8641194E-001	7,601825299638298E-002	1,000000000000000E+000	7,3527603E-004	41	2,9374360E-005
2	1	0	1	0	1,942759950921754E+001	3,8834909E-001	3,8841143E-001	7,641408002543026E-002	1,000000000000000E+000	7,4289198E-004	41	2,9680103E-005
2	1	0	1	0	1,952749950669386E+001	3,9034718E-001	3,9041424E-001	7,680586212383655E-002	1,000000000000000E+000	7,5054739E-004	41	2,9986102E-005
2	1	0	1	0	1,962749950416764E+001	3,9234614E-001	3,9241952E-001	7,719813203611531E-002	1,000000000000000E+000	7,5824972E-004	41	3,0294053E-005
2	1	0	1	0	1,972749950164143E+001	3,9434507E-001	3,9440209E-001	7,759114525591360E-002	1,000000000000000E+000	7,6599122E-004	41	3,0602110E-005
2	1	0	1	0	1,982739949911775E+001	3,9634588E-001	3,9641488E-001	7,798489429511757E-002	1,000000000000000E+000	7,7376433E-004	41	3,0914372E-005
2	1	0	1	0	1,992729949659406E+001	3,9834306E-001	3,9841288E-001	7,837957693953745E-002	1,000000000000000E+000	7,8157691E-004	41	3,1227431E-005
2	1	0	1	0	2,002729949406785E+001	4,0034202E-001	4,0042147E-001	7,877119435687296E-002	1,000000000000000E+000	7,8943645E-004	41	3,1541676E-005
2	1	0	1	0	2,012729949154163E+001	4,0234101E-001	4,0241891E-001	7,916442521295930E-002	1,000000000000000E+000	7,9733541E-004	41	3,1857260E-005
2	1	0	1	0	2,022709948902047E+001	4,0433994E-001	4,0440452E-001	7,955862337688879E-002	1,000000000000000E+000	8,0525782E-004	41	3,2173866E-005
2	1	0	1	0	2,032709948649426E+001	4,0633893E-001	4,0641934E-001	7,995145889516508E-002	1,000000000000000E+000	8,1323541E-004	41	3,2493819E-005
2	1	0	1	0	2,042709948396805E+001	4,0833792E-001	4,0840790E-001	8,034619811439414E-002	1,000000000000000E+000	8,2125241E-004	41	3,2814023E-005
2	1	0	1	0	2,052709948144184E+001	4,1033688E-001	4,1042289E-001	8,073932579201148E-002	1,000000000000000E+000	8,2930882E-004	41	3,3137268E-005
2	1	0	1	0	2,062689947892068E+001	4,1233584E-001	4,1241369E-001	8,112960923635559E-002	1,000000000000000E+000	8,3738827E-004	41	3,3458960E-005
2	1	0	1	0	2,072689947639446E+001	4,1433477E-001	4,1442388E-001	8,152361745359715E-002	1,000000000000000E+000	8,4552303E-004	41	3,3785334E-005
2	1	0	1	0	2,082689947386825E+001	4,1633376E-001	4,1642240E-001	8,191638668412682E-002	1,000000000000000E+000	8,5369713E-004	41	3,4111818E-005
2	1	0	1	0	2,092689947134204E+001	4,1833276E-001	4,1842109E-001	8,231210596514504E-002	1,000000000000000E+000	8,6191070E-004	41	3,4441120E-005
2	1	0	1	0	2,102669946882088E+001	4,2033172E-001	4,2041558E-001	8,270527644048409E-002	1,000000000000000E+000	8,7014708E-004	41	3,4770586E-005
2	1	0	1	0	2,112669946629467E+001	4,2233065E-001	4,2241931E-001	8,309903752955562E-002	1,000000000000000E+000	8,7843928E-004	41	3,5102639E-005
2	1	0	1	0	2,122669946376845E+001	4,2432964E-001	4,2441869E-001	8,349321288470590E-002	1,000000000000000E+000	8,8677101E-004	41	3,5436078E-005
2	1	0	1	0	2,132669946124224E+001	4,2632863E-001	4,2641887E-001	8,388519200013483E-002	1,000000000000000E+000	8,9514191E-004	41	3,5770230E-005
2	1	0	1	0	2,142649945872108E+001	4,2832759E-001	4,2841774E-001	8,427874944000346E-002	1,000000000000000E+000	9,0353552E-004	41	3,6106510E-005
2	1	0	1	0	2,152649945619487E+001	4,3032658E-001	4,3039313E-001	8,467151211678164E-002	1,000000000000000E+000	9,1198506E-004	41	3,6442038E-005
2	1	0	1	0	2,162649945366866E+001	4,3232554E-001	4,3239504E-001	8,505958365276461E-002	1,000000000000000E+000	9,2047377E-004	41	3,6779344E-005
2	1	0	1	0	2,172649945114244E+001	4,3432453E-001	4,3440628E-001	8,545224549662755E-002	1,000000000000000E+000	9,2900143E-004	41	3,7120994E-005
2	1	0	1	0	2,182629944862128E+001	4,3632352E-001	4,3640262E-001	8,584439212939277E-002	1,000000000000000E+000	9,3755126E-004	41	3,7462716E-005
2	1	0	1	0	2,192629944609507E+001	4,3832245E-001	4,3839967E-001	8,623871866924082E-002	1,000000000000000E+000	9,4615755E-004	41	3,7807025E-005
2	1	0	1	0	2,202629944356886E+001	4,4032145E-001	4,4039154E-001	8,663278843138236E-002	1,000000000000000E+000	9,5480325E-004	41	3,8152346E-005
2	1	0	1	0	2,212619944104517E+001	4,4231912E-001	4,4238663E-001	8,702647066439528E-002	1,000000000000000E+000	9,6347951E-004	41	3,8499347E-005
2	1	0	1	0	2,222609943852149E+001	4,4431940E-001	4,4439718E-001	8,741818065755047E-002	1,000000000000000E+000	9,7219524E-004	41	3,8848393E-005
2	1	0	0	0	2,230179943660914E+001	4,4586873E-001	4,4594398E-001	8,772607892751694E-002	1,000000000000000E+000	9,7882468E-004	41	3,9120918E-005