File: multiple_techniques_dataset/multiple_techniques_dataset_01_06_CA_C01.mpt
EC-Lab ASCII FILE
Nb header lines : 60

Chronoamperometry / Chronocoulometry

Run on channel : 1 (SN 5836)
User :
Electrode connection : standard
Ewe ctrl range : min = -10.00 V, max = 10.00 V
Ewe,I filtering : <None>
Safety Limits :
	Do not start on E overload
Channel : Grounded
Acquisition started on : 05/05/2022 15:55:02
Saved on :
	File : multiple_techniques_dataset_01_06_CA_C01.mpr
	Directory : C:\Users\Spectro Inlets\Desktop\Zilien Data Dir\multiple_techniques_dataset\
	Host : 192.168.1.105
Device : SP-200 (SN 0763)
Address : USB
EC-Lab for windows v11.27 (software)
Internet server v11.25 (firmware)
Command interpretor v11.27 (firmware)
Electrode material :
Initial state :
Electrolyte :
Comments :
Cable : standard
Electrode surface area : 0.001 cm²
Characteristic mass : 0.001 g
Equivalent Weight : 0.000 g/eq.
Density : 0.000 g/cm3
Cycle Definition : Charge/Discharge alternance
Ei (V)              0.050
vs.                 Ref
ti (h:m:s)          0:00:10.0000
Imax                pass
unit Imax           mA
Imin                pass
unit Imin           mA
dQM                 0.000
unit dQM            mA.h
record              I
dI                  5.000
unit dI             µA
dQ                  0.000
unit dQ             mA.h
dt (s)              1.0000
dta (s)             0.1000
E range min (V)     -10.000
E range max (V)     10.000
I Range             100 µA
I Range min         Unset
I Range max         Unset
I Range init        Unset
Bandwidth           1
goto Ns'            0
nc cycles           0

mode	ox/red	error	control changes	Ns changes	counter inc.	Ns	time/s	control/V	Ewe/V	I/mA	dQ/C	(Q-Qo)/C	I Range	Rcmp/Ohm	Q charge/discharge/mA.h	half cycle	Energy charge/W.h	Energy discharge/W.h	Capacitance charge/µF	Capacitance discharge/µF	Q discharge/mA.h	Q charge/mA.h	Capacity/mA.h	Efficiency/%	cycle number	P/W
2	0	0	0	0	0	0	629.681	0.0500354	0.198155	-0.250092	0.0000000E+000	0.0000000E+000	41	0.0000000E+000	0.000000000000000E+000	0	0.000000000000000E+000	0.000000000000000E+000	0.000000000000000E+000	0.000000000000000E+000	0.000000000000000E+000	0.000000000000000E+000	0.000000000000000E+000	0.0000000E+000	0.000000000000000E+000	-4.95569e-05
2	0	0	0	0	0	0	629.798	0.0500354	0.0453466	-0.231017	-2.92541e-05	-2.92541e-05	41	0.0000000E+000	-8.12613e-06	0	0.000000000000000E+000	-3.67997e-10	0.000000000000000E+000	478598	8.12613e-06	0.000000000000000E+000	8.12613e-06	0.0000000E+000	0.000000000000000E+000	-1.04758e-05
2	0	0	0	0	0	0	629.799	0.0500354	0.0461718	-0.215921	-2.93419e-05	-2.93419e-05	41	0.0000000E+000	-8.15053e-06	0	0.000000000000000E+000	-3.6911e-10	0.000000000000000E+000	33105	8.15053e-06	0.000000000000000E+000	8.15053e-06	0.0000000E+000	0.000000000000000E+000	-9.96949e-06
2	0	0	0	0	0	0	629.799	0.0500354	0.0450754	-0.200797	-2.94238e-05	-2.94238e-05	41	0.0000000E+000	-8.17327e-06	0	0.000000000000000E+000	-3.70142e-10	0.000000000000000E+000	140030	8.17327e-06	0.000000000000000E+000	8.17327e-06	0.0000000E+000	0.000000000000000E+000	-9.05098e-06
2	0	0	0	0	0	0	629.8	0.0500354	0.0448232	-0.185269	-2.94994e-05	-2.94994e-05	41	0.0000000E+000	-8.19429e-06	0	0.000000000000000E+000	-3.71088e-10	0.000000000000000E+000	63814.1	8.19429e-06	0.000000000000000E+000	8.19429e-06	0.0000000E+000	0.000000000000000E+000	-8.30435e-06
2	0	0	0	0	0	0	629.8	0.0500354	0.0458356	-0.169999	-2.95689e-05	-2.95689e-05	41	0.0000000E+000	-8.21359e-06	0	0.000000000000000E+000	-3.71971e-10	0.000000000000000E+000	53748.4	8.21359e-06	0.000000000000000E+000	8.21359e-06	0.0000000E+000	0.000000000000000E+000	-7.79203e-06
2	0	0	0	0	0	0	629.8	0.0500354	0.0446398	-0.154554	-2.96323e-05	-2.96323e-05	41	0.0000000E+000	-8.2312e-06	0	0.000000000000000E+000	-3.72766e-10	0.000000000000000E+000	45895.4	8.2312e-06	0.000000000000000E+000	8.2312e-06	0.0000000E+000	0.000000000000000E+000	-6.89927e-06
2	0	0	0	0	0	0	629.801	0.0500354	0.0445787	-0.139437	-2.96896e-05	-2.96896e-05	41	0.0000000E+000	-8.24711e-06	0	0.000000000000000E+000	-3.7348e-10	0.000000000000000E+000	42007.3	8.24711e-06	0.000000000000000E+000	8.24711e-06	0.0000000E+000	0.000000000000000E+000	-6.21592e-06
2	0	0	0	0	0	0	629.801	0.0500354	0.0445978	-0.124252	-2.97408e-05	-2.97408e-05	41	0.0000000E+000	-8.26135e-06	0	0.000000000000000E+000	-3.74115e-10	0.000000000000000E+000	43248.5	8.26135e-06	0.000000000000000E+000	8.26135e-06	0.0000000E+000	0.000000000000000E+000	-5.54137e-06
2	0	0	0	0	0	0	629.802	0.0500354	0.0444526	-0.109313	-2.97861e-05	-2.97861e-05	41	0.0000000E+000	-8.2739e-06	0	0.000000000000000E+000	-3.74675e-10	0.000000000000000E+000	35764.2	8.2739e-06	0.000000000000000E+000	8.2739e-06	0.0000000E+000	0.000000000000000E+000	-4.85924e-06
2	0	0	0	0	0	0	629.802	0.0500354	0.0441088	-0.0946691	-2.98254e-05	-2.98254e-05	41	0.0000000E+000	-8.28483e-06	0	0.000000000000000E+000	-3.75156e-10	0.000000000000000E+000	25347	8.28483e-06	0.000000000000000E+000	8.28483e-06	0.0000000E+000	0.000000000000000E+000	-4.17574e-06
2	0	0	0	0	0	0	629.802	0.0500354	0.0442081	-0.0802886	-2.98589e-05	-2.98589e-05	41	0.0000000E+000	-8.29415e-06	0	0.000000000000000E+000	-3.75569e-10	0.000000000000000E+000	27715.1	8.29415e-06	0.000000000000000E+000	8.29415e-06	0.0000000E+000	0.000000000000000E+000	-3.54941e-06
2	0	0	0	0	0	0	629.803	0.0500354	0.0439827	-0.0652957	-2.98865e-05	-2.98865e-05	41	0.0000000E+000	-8.30181e-06	0	0.000000000000000E+000	-3.75905e-10	0.000000000000000E+000	22941	8.30181e-06	0.000000000000000E+000	8.30181e-06	0.0000000E+000	0.000000000000000E+000	-2.87189e-06
2	0	0	0	0	0	0	629.803	0.0500354	0.0443571	-0.0512175	-2.99084e-05	-2.99084e-05	41	0.0000000E+000	-8.3079e-06	0	0.000000000000000E+000	-3.76175e-10	0.000000000000000E+000	32216.5	8.3079e-06	0.000000000000000E+000	8.3079e-06	0.0000000E+000	0.000000000000000E+000	-2.27186e-06
2	0	0	0	0	0	0	629.804	0.0500354	0.0434861	-0.0369064	-2.99246e-05	-2.99246e-05	41	0.0000000E+000	-8.31239e-06	0	0.000000000000000E+000	-3.76372e-10	0.000000000000000E+000	16630.2	8.31239e-06	0.000000000000000E+000	8.31239e-06	0.0000000E+000	0.000000000000000E+000	-1.60492e-06
2	0	0	0	0	0	0	629.804	0.0500354	0.0436733	-0.0228374	-2.99352e-05	-2.99352e-05	41	0.0000000E+000	-8.31533e-06	0	0.000000000000000E+000	-3.765e-10	0.000000000000000E+000	18567.8	8.31533e-06	0.000000000000000E+000	8.31533e-06	0.0000000E+000	0.000000000000000E+000	-9.97383e-07
2	0	0	0	0	0	0	629.804	0.0500354	0.0441967	-0.00855836	-2.994e-05	-2.994e-05	41	0.0000000E+000	-8.31668e-06	0	0.000000000000000E+000	-3.7656e-10	0.000000000000000E+000	27497.9	8.31668e-06	0.000000000000000E+000	8.31668e-06	0.0000000E+000	0.000000000000000E+000	-3.78251e-07
2	1	0	0	0	0	0	629.805	0.0500354	0.0426418	0.00519312	-2.99394e-05	-2.99394e-05	41	0.0000000E+000	2.88512e-10	2	1.23027e-14	0.000000000000000E+000	0.000000000000000E+000	0.000000000000000E+000	0.000000000000000E+000	2.88512e-10	2.88512e-10	0.0000000E+000	1	2.21444e-07
2	1	0	0	0	0	0	629.805	0.0500354	0.043551	0.0190156	-2.99332e-05	-2.99332e-05	41	0.0000000E+000	2.01453e-09	2	8.74572e-14	0.000000000000000E+000	7.97614	0.000000000000000E+000	0.000000000000000E+000	2.01453e-09	2.01453e-09	0.0000000E+000	1	8.28149e-07
2	1	0	0	0	0	0	629.806	0.0500354	0.043807	0.0323346	-2.99216e-05	-2.99216e-05	41	0.0000000E+000	5.23818e-09	2	2.28888e-13	0.000000000000000E+000	16.1836	0.000000000000000E+000	0.000000000000000E+000	5.23818e-09	5.23818e-09	0.0000000E+000	1	1.41648e-06
2	1	0	0	0	0	0	629.806	0.0500354	0.0431002	0.0460757	-2.99045e-05	-2.99045e-05	41	0.0000000E+000	9.98777e-09	2	4.33387e-13	0.000000000000000E+000	78.4296	0.000000000000000E+000	0.000000000000000E+000	9.98777e-09	9.98777e-09	0.0000000E+000	1	1.98588e-06
2	1	0	0	0	0	0	629.806	0.0500354	0.0438758	0.0589645	-2.98822e-05	-2.98822e-05	41	0.0000000E+000	1.61814e-08	2	7.02954e-13	0.000000000000000E+000	47.2072	0.000000000000000E+000	0.000000000000000E+000	1.61814e-08	1.61814e-08	0.0000000E+000	1	2.58711e-06
2	1	0	0	0	0	0	629.807	0.0500354	0.0431881	0.0724469	-2.98546e-05	-2.98546e-05	41	0.0000000E+000	2.3848e-08	2	1.0361e-12	0.000000000000000E+000	157.148	0.000000000000000E+000	0.000000000000000E+000	2.3848e-08	2.3848e-08	0.0000000E+000	1	3.12884e-06
2	1	0	0	0	0	0	629.807	0.0500354	0.0435319	0.0853823	-2.98217e-05	-2.98217e-05	41	0.0000000E+000	3.29833e-08	2	1.43236e-12	0.000000000000000E+000	133.393	0.000000000000000E+000	0.000000000000000E+000	3.29833e-08	3.29833e-08	0.0000000E+000	1	3.71685e-06
2	1	0	0	0	0	0	629.808	0.0500354	0.0437421	0.097824	-2.97838e-05	-2.97838e-05	41	0.0000000E+000	4.35168e-08	2	1.89261e-12	0.000000000000000E+000	142.383	0.000000000000000E+000	0.000000000000000E+000	4.35168e-08	4.35168e-08	0.0000000E+000	1	4.27902e-06
2	1	0	0	0	0	0	629.808	0.0500354	0.0432951	0.110167	-2.97409e-05	-2.97409e-05	41	0.0000000E+000	5.54236e-08	2	2.40541e-12	0.000000000000000E+000	305.418	0.000000000000000E+000	0.000000000000000E+000	5.54236e-08	5.54236e-08	0.0000000E+000	1	4.7697e-06
2	1	0	0	0	0	0	629.808	0.0500354	0.0433524	0.122416	-2.96931e-05	-2.96931e-05	41	0.0000000E+000	6.87007e-08	2	2.97495e-12	0.000000000000000E+000	348.052	0.000000000000000E+000	0.000000000000000E+000	6.87007e-08	6.87007e-08	0.0000000E+000	1	5.30702e-06
2	1	0	0	0	0	0	629.809	0.0500354	0.0431652	0.134705	-2.96404e-05	-2.96404e-05	41	0.0000000E+000	8.33244e-08	2	3.61114e-12	0.000000000000000E+000	573.122	0.000000000000000E+000	0.000000000000000E+000	8.33244e-08	8.33244e-08	0.0000000E+000	1	5.81457e-06
2	1	0	0	0	0	0	629.809	0.0500354	0.0430506	0.14648	-2.9583e-05	-2.9583e-05	41	0.0000000E+000	9.92804e-08	2	4.29618e-12	0.000000000000000E+000	874.325	0.000000000000000E+000	0.000000000000000E+000	9.92804e-08	9.92804e-08	0.0000000E+000	1	6.30603e-06
2	1	0	0	0	0	0	629.81	0.0500354	0.0437268	0.158115	-2.95209e-05	-2.95209e-05	41	0.0000000E+000	1.1654e-07	2	5.04594e-12	0.000000000000000E+000	386.68	0.000000000000000E+000	0.000000000000000E+000	1.1654e-07	1.1654e-07	0.0000000E+000	1	6.91385e-06
2	1	0	0	0	0	0	629.81	0.0500354	0.043276	0.169704	-2.94541e-05	-2.94541e-05	41	0.0000000E+000	1.3508e-07	2	5.84775e-12	0.000000000000000E+000	766.796	0.000000000000000E+000	0.000000000000000E+000	1.3508e-07	1.3508e-07	0.0000000E+000	1	7.3441e-06
2	1	0	0	0	0	0	629.81	0.0500354	0.0432607	0.181145	-2.93828e-05	-2.93828e-05	41	0.0000000E+000	1.54893e-07	2	6.70392e-12	0.000000000000000E+000	900.967	0.000000000000000E+000	0.000000000000000E+000	1.54893e-07	1.54893e-07	0.0000000E+000	1	7.83645e-06
2	1	0	0	0	0	0	629.811	0.0500354	0.0430506	0.192258	-2.9307e-05	-2.9307e-05	41	0.0000000E+000	1.75949e-07	2	7.61233e-12	0.000000000000000E+000	1549.52	0.000000000000000E+000	0.000000000000000E+000	1.75949e-07	1.75949e-07	0.0000000E+000	1	8.27681e-06
2	1	0	0	0	0	0	629.811	0.0500354	0.0425921	0.203215	-2.92268e-05	-2.92268e-05	41	0.0000000E+000	1.98216e-07	2	8.56993e-12	0.000000000000000E+000	14367.6	0.000000000000000E+000	0.000000000000000E+000	1.98216e-07	1.98216e-07	0.0000000E+000	1	8.65535e-06
2	1	0	0	0	0	0	629.812	0.0500354	0.0423553	0.213577	-2.91424e-05	-2.91424e-05	41	0.0000000E+000	2.21664e-07	2	9.5611e-12	0.000000000000000E+000	2785.01	0.000000000000000E+000	0.000000000000000E+000	2.21664e-07	2.21664e-07	0.0000000E+000	1	9.04612e-06
2	1	0	0	0	0	0	629.812	0.0500354	0.0427105	0.228844	-2.90082e-05	-2.90082e-05	41	0.0000000E+000	2.58947e-07	2	1.1165e-11	0.000000000000000E+000	13556.4	0.000000000000000E+000	0.000000000000000E+000	2.58947e-07	2.58947e-07	0.0000000E+000	1	9.77405e-06
2	1	0	0	0	0	0	629.813	0.0500354	0.0432721	0.243385	-2.8865e-05	-2.8865e-05	41	0.0000000E+000	2.98719e-07	2	1.28778e-11	0.000000000000000E+000	1705.98	0.000000000000000E+000	0.000000000000000E+000	2.98719e-07	2.98719e-07	0.0000000E+000	1	1.05318e-05
2	1	0	0	0	0	0	629.84	0.0500354	0.051039	0.230613	-2.20826e-05	-2.20826e-05	41	0.0000000E+000	2.18271e-06	2	1.08815e-10	0.000000000000000E+000	935.758	0.000000000000000E+000	0.000000000000000E+000	2.18271e-06	2.18271e-06	0.0000000E+000	1	1.17702e-05
2	1	0	0	0	0	0	629.841	0.0500354	0.0512491	0.215888	-2.19057e-05	-2.19057e-05	41	0.0000000E+000	2.23187e-06	2	1.11353e-10	0.000000000000000E+000	933.476	0.000000000000000E+000	0.000000000000000E+000	2.23187e-06	2.23187e-06	0.0000000E+000	1	1.10641e-05
2	1	0	0	0	0	0	629.842	0.0500354	0.0507716	0.200846	-2.17405e-05	-2.17405e-05	41	0.0000000E+000	2.27775e-06	2	1.1372e-10	0.000000000000000E+000	1008.62	0.000000000000000E+000	0.000000000000000E+000	2.27775e-06	2.27775e-06	0.0000000E+000	1	1.01973e-05
2	1	0	0	0	0	0	629.843	0.0500354	0.0524029	0.185562	-2.15874e-05	-2.15874e-05	41	0.0000000E+000	2.32027e-06	2	1.15921e-10	0.000000000000000E+000	855.741	0.000000000000000E+000	0.000000000000000E+000	2.32027e-06	2.32027e-06	0.0000000E+000	1	9.72399e-06
2	1	0	0	0	0	0	629.843	0.0500354	0.0521011	0.169878	-2.14468e-05	-2.14468e-05	41	0.0000000E+000	2.35935e-06	2	1.17953e-10	0.000000000000000E+000	897.916	0.000000000000000E+000	0.000000000000000E+000	2.35935e-06	2.35935e-06	0.0000000E+000	1	8.8508e-06
2	1	0	0	0	0	0	629.844	0.0500354	0.0518375	0.154562	-2.13186e-05	-2.13186e-05	41	0.0000000E+000	2.39495e-06	2	1.19802e-10	0.000000000000000E+000	937.593	0.000000000000000E+000	0.000000000000000E+000	2.39495e-06	2.39495e-06	0.0000000E+000	1	8.01211e-06
2	1	0	0	0	0	0	629.845	0.0500354	0.0531746	0.138882	-2.12028e-05	-2.12028e-05	41	0.0000000E+000	2.42711e-06	2	1.21499e-10	0.000000000000000E+000	829.561	0.000000000000000E+000	0.000000000000000E+000	2.42711e-06	2.42711e-06	0.0000000E+000	1	7.38499e-06
2	1	0	0	0	0	0	629.846	0.0500354	0.0534802	0.123453	-2.10994e-05	-2.10994e-05	41	0.0000000E+000	2.45582e-06	2	1.23005e-10	0.000000000000000E+000	815.704	0.000000000000000E+000	0.000000000000000E+000	2.45582e-06	2.45582e-06	0.0000000E+000	1	6.60228e-06
2	1	0	0	0	0	0	629.847	0.0500354	0.0523952	0.108124	-2.10083e-05	-2.10083e-05	41	0.0000000E+000	2.48113e-06	2	1.24339e-10	0.000000000000000E+000	915.786	0.000000000000000E+000	0.000000000000000E+000	2.48113e-06	2.48113e-06	0.0000000E+000	1	5.66516e-06
2	1	0	0	0	0	0	629.847	0.0500354	0.0522959	0.0926956	-2.09296e-05	-2.09296e-05	41	0.0000000E+000	2.50301e-06	2	1.25494e-10	0.000000000000000E+000	933.366	0.000000000000000E+000	0.000000000000000E+000	2.50301e-06	2.50301e-06	0.0000000E+000	1	4.8476e-06
2	1	0	0	0	0	0	629.848	0.0500354	0.0537782	0.0772909	-2.08632e-05	-2.08632e-05	41	0.0000000E+000	2.52145e-06	2	1.26477e-10	0.000000000000000E+000	815.091	0.000000000000000E+000	0.000000000000000E+000	2.52145e-06	2.52145e-06	0.0000000E+000	1	4.15657e-06
2	1	0	0	0	0	0	629.849	0.0500354	0.0541182	0.0622859	-2.08089e-05	-2.08089e-05	41	0.0000000E+000	2.53654e-06	2	1.27282e-10	0.000000000000000E+000	795.677	0.000000000000000E+000	0.000000000000000E+000	2.53654e-06	2.53654e-06	0.0000000E+000	1	3.3708e-06
2	1	0	0	0	0	0	629.85	0.0500354	0.0532013	0.0477439	-2.07663e-05	-2.07663e-05	41	0.0000000E+000	2.54835e-06	2	1.27909e-10	0.000000000000000E+000	868.793	0.000000000000000E+000	0.000000000000000E+000	2.54835e-06	2.54835e-06	0.0000000E+000	1	2.54004e-06
2	1	0	0	0	0	0	629.851	0.0500354	0.0531211	0.0334122	-2.07355e-05	-2.07355e-05	41	0.0000000E+000	2.55692e-06	2	1.28367e-10	0.000000000000000E+000	878.387	0.000000000000000E+000	0.000000000000000E+000	2.55692e-06	2.55692e-06	0.0000000E+000	1	1.77489e-06
2	1	0	0	0	0	0	629.851	0.0500354	0.0531861	0.0193519	-2.07158e-05	-2.07158e-05	41	0.0000000E+000	2.56239e-06	2	1.2866e-10	0.000000000000000E+000	874.845	0.000000000000000E+000	0.000000000000000E+000	2.56239e-06	2.56239e-06	0.0000000E+000	1	1.02925e-06
2	1	0	0	0	0	0	629.852	0.0500354	0.0538355	0.0058993	-2.07071e-05	-2.07071e-05	41	0.0000000E+000	2.56482e-06	2	1.28789e-10	0.000000000000000E+000	824.866	0.000000000000000E+000	0.000000000000000E+000	2.56482e-06	2.56482e-06	0.0000000E+000	1	3.17592e-07
2	0	0	0	0	0	0	629.853	0.0500354	0.0534191	-0.00658295	-2.07086e-05	-2.07086e-05	41	0.0000000E+000	-4.19378e-10	3	1.28797e-10	-2.97444e-14	826.886	0.000000000000000E+000	4.19378e-10	0.000000000000000E+000	4.19378e-10	0.0000000E+000	1	-3.51656e-07
2	0	0	0	0	0	0	629.854	0.0500354	0.0533771	-0.0192732	-2.07203e-05	-2.07203e-05	41	0.0000000E+000	-3.66779e-09	3	1.28797e-10	-2.03547e-13	826.886	325.968	3.66779e-09	0.000000000000000E+000	3.66779e-09	0.0000000E+000	1	-1.02875e-06
2	0	0	0	0	0	0	629.855	0.0500354	0.0539425	-0.0311604	-2.07417e-05	-2.07417e-05	41	0.0000000E+000	-9.61235e-09	3	1.28797e-10	-5.24786e-13	826.886	67.061	9.61235e-09	0.000000000000000E+000	9.61235e-09	0.0000000E+000	1	-1.68087e-06
2	0	0	0	0	0	0	629.855	0.0500354	0.054485	-0.0423753	-2.07722e-05	-2.07722e-05	41	0.0000000E+000	-1.80929e-08	3	1.28797e-10	-9.79652e-13	826.886	61.5723	1.80929e-08	0.000000000000000E+000	1.80929e-08	0.0000000E+000	1	-2.30882e-06
2	0	0	0	0	0	0	629.856	0.0500354	0.0538585	-0.0529188	-2.08113e-05	-2.08113e-05	41	0.0000000E+000	-2.89664e-08	3	1.28797e-10	-1.56106e-12	826.886	238.477	2.89664e-08	0.000000000000000E+000	2.89664e-08	0.0000000E+000	1	-2.85013e-06
2	0	0	0	0	0	0	629.857	0.0500354	0.053847	-0.0652873	-2.08718e-05	-2.08718e-05	41	0.0000000E+000	-4.57653e-08	3	1.28797e-10	-2.46802e-12	826.886	386.203	4.57653e-08	0.000000000000000E+000	4.57653e-08	0.0000000E+000	1	-3.51553e-06
2	0	0	0	0	0	0	629.858	0.0500354	0.0537133	-0.0783949	-2.09594e-05	-2.09594e-05	41	0.0000000E+000	-7.00902e-08	3	1.28797e-10	-3.7657e-12	826.886	859.43	7.00902e-08	0.000000000000000E+000	7.00902e-08	0.0000000E+000	1	-4.21084e-06
2	0	0	0	0	0	0	629.86	0.0500354	0.0545003	-0.0898938	-2.10615e-05	-2.10615e-05	41	0.0000000E+000	-9.84573e-08	3	1.28797e-10	-5.29557e-12	826.886	328.294	9.84573e-08	0.000000000000000E+000	9.84573e-08	0.0000000E+000	1	-4.89924e-06
2	0	0	0	0	0	0	629.861	0.0500354	0.0531708	-0.102398	-2.12169e-05	-2.12169e-05	41	0.0000000E+000	-1.41607e-07	3	1.28797e-10	-7.58957e-12	826.886	2054.87	1.41607e-07	0.000000000000000E+000	1.41607e-07	0.0000000E+000	1	-5.44457e-06
2	0	0	0	0	0	0	629.863	0.0500354	0.0531899	-0.112619	-2.14121e-05	-2.14121e-05	41	0.0000000E+000	-1.95841e-07	3	1.28797e-10	-1.04757e-11	826.886	3077.87	1.95841e-07	0.000000000000000E+000	1.95841e-07	0.0000000E+000	1	-5.9902e-06
2	0	0	0	0	0	0	629.871	0.0500354	0.0511689	-0.112501	-2.23602e-05	-2.23602e-05	41	0.0000000E+000	-4.59217e-07	3	1.28797e-10	-2.40039e-11	826.886	734.897	4.59217e-07	0.000000000000000E+000	4.59217e-07	0.0000000E+000	1	-5.75656e-06
2	0	0	0	0	0	0	629.873	0.0500354	0.0511116	-0.101366	-2.25955e-05	-2.25955e-05	41	0.0000000E+000	-5.24568e-07	3	1.28797e-10	-2.73607e-11	826.886	818.603	5.24568e-07	0.000000000000000E+000	5.24568e-07	0.0000000E+000	1	-5.181e-06
2	0	0	0	0	0	0	629.875	0.0500354	0.0509435	-0.0908905	-2.27485e-05	-2.27485e-05	41	0.0000000E+000	-5.67072e-07	3	1.28797e-10	-2.95149e-11	826.886	824.828	5.67072e-07	0.000000000000000E+000	5.67072e-07	0.0000000E+000	1	-4.63028e-06
2	0	0	0	0	0	0	629.876	0.0500354	0.0502978	-0.0787468	-2.28831e-05	-2.28831e-05	41	0.0000000E+000	-6.04462e-07	3	1.28797e-10	-3.14023e-11	826.886	697.333	6.04462e-07	0.000000000000000E+000	6.04462e-07	0.0000000E+000	1	-3.96079e-06
2	0	0	0	0	0	0	629.878	0.0500354	0.050359	-0.0683587	-2.29705e-05	-2.29705e-05	41	0.0000000E+000	-6.2872e-07	3	1.28797e-10	-3.26245e-11	826.886	739.799	6.2872e-07	0.000000000000000E+000	6.2872e-07	0.0000000E+000	1	-3.44247e-06
2	0	0	0	0	0	0	629.879	0.0500354	0.050783	-0.0575716	-2.30451e-05	-2.30451e-05	41	0.0000000E+000	-6.49465e-07	3	1.28797e-10	-3.36662e-11	826.886	887.141	6.49465e-07	0.000000000000000E+000	6.49465e-07	0.0000000E+000	1	-2.92366e-06
2	0	0	0	0	0	0	629.88	0.0500354	0.0502405	-0.0462158	-2.31063e-05	-2.31063e-05	41	0.0000000E+000	-6.66466e-07	3	1.28797e-10	-3.45131e-11	826.886	754.985	6.66466e-07	0.000000000000000E+000	6.66466e-07	0.0000000E+000	1	-2.32191e-06
2	0	0	0	0	0	0	629.881	0.0500354	0.0498432	-0.0347398	-2.31536e-05	-2.31536e-05	41	0.0000000E+000	-6.79604e-07	3	1.28797e-10	-3.51649e-11	826.886	684.325	6.79604e-07	0.000000000000000E+000	6.79604e-07	0.0000000E+000	1	-1.73154e-06
2	0	0	0	0	0	0	629.882	0.0500354	0.0496522	-0.0222617	-2.31869e-05	-2.31869e-05	41	0.0000000E+000	-6.88837e-07	3	1.28797e-10	-3.56201e-11	826.886	658.447	6.88837e-07	0.000000000000000E+000	6.88837e-07	0.0000000E+000	1	-1.10534e-06
2	0	0	0	0	0	0	629.884	0.0500354	0.0488232	-0.0106078	-2.32054e-05	-2.32054e-05	41	0.0000000E+000	-6.9398e-07	3	1.28797e-10	-3.58714e-11	826.886	543.703	6.9398e-07	0.000000000000000E+000	6.9398e-07	0.0000000E+000	1	-5.17907e-07
2	1	0	0	0	0	0	629.885	0.0500354	0.0486513	0.00156105	-2.32098e-05	-2.32098e-05	41	0.0000000E+000	-8.99389e-11	4	0.000000000000000E+000	-4.37564e-15	0.000000000000000E+000	0.000000000000000E+000	8.99389e-11	0.000000000000000E+000	8.99389e-11	0.0000000E+000	2	7.5947e-08
2	1	0	0	0	0	0	629.886	0.0500354	0.0489569	0.0133627	-2.31997e-05	-2.31997e-05	41	0.0000000E+000	2.69109e-09	4	1.36812e-13	-4.37564e-15	13.5082	0.000000000000000E+000	0.000000000000000E+000	2.69109e-09	2.69109e-09	0.0000000E+000	2	6.54196e-07
2	1	0	0	0	0	0	629.887	0.0500354	0.0485596	0.0250262	-2.31757e-05	-2.31757e-05	41	0.0000000E+000	9.37436e-09	4	4.62246e-13	-4.37564e-15	29.9272	0.000000000000000E+000	0.000000000000000E+000	9.37436e-09	9.37436e-09	0.0000000E+000	2	1.21526e-06
2	1	0	0	0	0	0	629.888	0.0500354	0.049209	0.0361079	-2.31378e-05	-2.31378e-05	41	0.0000000E+000	1.99109e-08	4	9.75741e-13	-4.37564e-15	147.241	0.000000000000000E+000	0.000000000000000E+000	1.99109e-08	1.99109e-08	0.0000000E+000	2	1.77683e-06
2	1	0	0	0	0	0	629.89	0.0500354	0.0482195	0.0464208	-2.30872e-05	-2.30872e-05	41	0.0000000E+000	3.39666e-08	4	1.65438e-12	-4.37564e-15	82.9244	0.000000000000000E+000	0.000000000000000E+000	3.39666e-08	3.39666e-08	0.0000000E+000	2	2.23839e-06
2	1	0	0	0	0	0	629.891	0.0500354	0.0483227	0.0582656	-2.30126e-05	-2.30126e-05	41	0.0000000E+000	5.46687e-08	4	2.65226e-12	-4.37564e-15	143.332	0.000000000000000E+000	0.000000000000000E+000	5.46687e-08	5.46687e-08	0.0000000E+000	2	2.81555e-06
2	1	0	0	0	0	0	629.893	0.0500354	0.0485901	0.0698794	-2.29087e-05	-2.29087e-05	41	0.0000000E+000	8.35437e-08	4	4.06251e-12	-4.37564e-15	271.754	0.000000000000000E+000	0.000000000000000E+000	8.35437e-08	8.35437e-08	0.0000000E+000	2	3.39545e-06
2	1	0	0	0	0	0	629.894	0.0500354	0.0476083	0.0817563	-2.27705e-05	-2.27705e-05	41	0.0000000E+000	1.21923e-07	4	5.90385e-12	-4.37564e-15	210.191	0.000000000000000E+000	0.000000000000000E+000	1.21923e-07	1.21923e-07	0.0000000E+000	2	3.89228e-06
2	1	0	0	0	0	0	629.897	0.0500354	0.0488576	0.0929441	-2.25763e-05	-2.25763e-05	41	0.0000000E+000	1.75858e-07	4	8.52804e-12	-4.37564e-15	753.626	0.000000000000000E+000	0.000000000000000E+000	1.75858e-07	1.75858e-07	0.0000000E+000	2	4.54102e-06
2	1	0	0	0	0	0	629.9	0.0500354	0.0488958	0.103496	-2.22789e-05	-2.22789e-05	41	0.0000000E+000	2.58489e-07	4	1.25793e-11	-4.37564e-15	1160.29	0.000000000000000E+000	0.000000000000000E+000	2.58489e-07	2.58489e-07	0.0000000E+000	2	5.06054e-06
2	1	0	0	0	0	0	629.911	0.0500354	0.049847	0.0925521	-2.11367e-05	-2.11367e-05	41	0.0000000E+000	5.75772e-07	4	2.81323e-11	-4.37564e-15	13914.5	0.000000000000000E+000	0.000000000000000E+000	5.75772e-07	5.75772e-07	0.0000000E+000	2	4.61345e-06
2	1	0	0	0	0	0	629.913	0.0500354	0.0505615	0.0809761	-2.0929e-05	-2.0929e-05	41	0.0000000E+000	6.33447e-07	4	3.10384e-11	-4.37564e-15	2641.56	0.000000000000000E+000	0.000000000000000E+000	6.33447e-07	6.33447e-07	0.0000000E+000	2	4.09427e-06
2	1	0	0	0	0	0	629.915	0.0500354	0.0508747	0.0695454	-2.07638e-05	-2.07638e-05	41	0.0000000E+000	6.79353e-07	4	3.336e-11	-4.37564e-15	2078.73	0.000000000000000E+000	0.000000000000000E+000	6.79353e-07	6.79353e-07	0.0000000E+000	2	3.5381e-06
2	1	0	0	0	0	0	629.917	0.0500354	0.0508594	0.0582442	-2.06368e-05	-2.06368e-05	41	0.0000000E+000	7.14621e-07	4	3.51573e-11	-4.37564e-15	2215.4	0.000000000000000E+000	0.000000000000000E+000	7.14621e-07	7.14621e-07	0.0000000E+000	2	2.96227e-06
2	1	0	0	0	0	0	629.919	0.0500354	0.0505576	0.0466666	-2.05432e-05	-2.05432e-05	41	0.0000000E+000	7.40619e-07	4	3.64727e-11	-4.37564e-15	3102.14	0.000000000000000E+000	0.000000000000000E+000	7.40619e-07	7.40619e-07	0.0000000E+000	2	2.35936e-06
2	1	0	0	0	0	0	629.921	0.0500354	0.0510199	0.0357441	-2.04699e-05	-2.04699e-05	41	0.0000000E+000	7.60972e-07	4	3.75062e-11	-4.37564e-15	2072.72	0.000000000000000E+000	0.000000000000000E+000	7.60972e-07	7.60972e-07	0.0000000E+000	2	1.82366e-06
2	1	0	0	0	0	0	629.923	0.0500354	0.051081	0.024457	-2.04167e-05	-2.04167e-05	41	0.0000000E+000	7.75747e-07	4	3.8261e-11	-4.37564e-15	2019.57	0.000000000000000E+000	0.000000000000000E+000	7.75747e-07	7.75747e-07	0.0000000E+000	2	1.24929e-06
2	1	0	0	0	0	0	629.925	0.0500354	0.0505309	0.0125168	-2.03813e-05	-2.03813e-05	41	0.0000000E+000	7.8559e-07	4	3.87625e-11	-4.37564e-15	3396.13	0.000000000000000E+000	0.000000000000000E+000	7.8559e-07	7.8559e-07	0.0000000E+000	2	6.32485e-07
2	1	0	0	0	0	0	629.927	0.0500354	0.0510352	0.00136637	-2.03691e-05	-2.03691e-05	41	0.0000000E+000	7.8898e-07	4	3.89343e-11	-4.37564e-15	2124.43	0.000000000000000E+000	0.000000000000000E+000	7.8898e-07	7.8898e-07	0.0000000E+000	2	6.9733e-08
2	0	0	0	0	0	0	629.929	0.0500354	0.0509932	-0.00974436	-2.03805e-05	-2.03805e-05	41	0.0000000E+000	-3.15544e-09	5	3.89343e-11	-1.65482e-13	2124.43	4.98884	3.15544e-09	0.000000000000000E+000	3.15544e-09	0.0000000E+000	2	-4.96896e-07
2	0	0	0	0	0	0	629.931	0.0500354	0.0513064	-0.0207849	-2.04188e-05	-2.04188e-05	41	0.0000000E+000	-1.38092e-08	5	3.89343e-11	-7.1111e-13	2124.43	18.845	1.38092e-08	0.000000000000000E+000	1.38092e-08	0.0000000E+000	2	-1.0664e-06
2	0	0	0	0	0	0	629.934	0.0500354	0.0516617	-0.0321021	-2.05056e-05	-2.05056e-05	41	0.0000000E+000	-3.79027e-08	5	3.89343e-11	-1.95351e-12	2124.43	45.4326	3.79027e-08	0.000000000000000E+000	3.79027e-08	0.0000000E+000	2	-1.65845e-06
2	0	0	0	0	0	0	629.949	0.0500354	0.0493275	-0.0315975	-2.1048e-05	-2.1048e-05	41	0.0000000E+000	-1.88593e-07	5	3.89343e-11	-9.43075e-12	2124.43	1004.51	1.88593e-07	0.000000000000000E+000	1.88593e-07	0.0000000E+000	2	-1.55862e-06
2	0	0	0	0	0	0	629.952	0.0500354	0.049847	-0.0213208	-2.11429e-05	-2.11429e-05	41	0.0000000E+000	-2.14935e-07	5	3.89343e-11	-1.07552e-11	2124.43	647.348	2.14935e-07	0.000000000000000E+000	2.14935e-07	0.0000000E+000	2	-1.06278e-06
2	0	0	0	0	0	0	629.955	0.0500354	0.0493466	-0.0105731	-2.11934e-05	-2.11934e-05	41	0.0000000E+000	-2.28975e-07	5	3.89343e-11	-1.14505e-11	2124.43	1185.99	2.28975e-07	0.000000000000000E+000	2.28975e-07	0.0000000E+000	2	-5.21745e-07
2	0	0	0	0	0	0	629.958	0.0500354	0.0500151	-0.000228838	-2.12089e-05	-2.12089e-05	41	0.0000000E+000	-2.33271e-07	5	3.89343e-11	-1.16661e-11	2124.43	615.963	2.33271e-07	0.000000000000000E+000	2.33271e-07	29.5662	2	-1.14454e-08
2	1	0	0	0	0	0	629.962	0.0500354	0.0492549	0.0102524	-2.11913e-05	-2.11913e-05	41	0.0000000E+000	4.88298e-09	6	2.41367e-13	0.000000000000000E+000	25.8501	0.000000000000000E+000	0.000000000000000E+000	4.88298e-09	4.88298e-09	0.0000000E+000	3	5.04983e-07
2	1	0	0	0	0	0	629.965	0.0500354	0.0499196	0.0210479	-2.11334e-05	-2.11334e-05	41	0.0000000E+000	2.09669e-08	6	1.04541e-12	0.000000000000000E+000	4940.68	0.000000000000000E+000	0.000000000000000E+000	2.09669e-08	2.09669e-08	0.0000000E+000	3	1.0507e-06
2	1	0	0	0	0	0	629.97	0.0500354	0.0494994	0.0318727	-2.10036e-05	-2.10036e-05	41	0.0000000E+000	5.70314e-08	6	2.83598e-12	0.000000000000000E+000	471.42	0.000000000000000E+000	0.000000000000000E+000	5.70314e-08	5.70314e-08	0.0000000E+000	3	1.57768e-06
2	1	0	0	0	0	0	629.983	0.0500354	0.0505806	0.0318723	-2.05335e-05	-2.05335e-05	41	0.0000000E+000	1.8762e-07	6	9.37409e-12	0.000000000000000E+000	1046.13	0.000000000000000E+000	0.000000000000000E+000	1.8762e-07	1.8762e-07	0.0000000E+000	3	1.61212e-06
2	1	0	0	0	0	0	629.989	0.0500354	0.0502635	0.0214811	-2.0383e-05	-2.0383e-05	41	0.0000000E+000	2.2941e-07	6	1.14745e-11	0.000000000000000E+000	2513.63	0.000000000000000E+000	0.000000000000000E+000	2.2941e-07	2.2941e-07	0.0000000E+000	3	1.07972e-06
2	1	0	0	0	0	0	629.994	0.0500354	0.0503934	0.011096	-2.03046e-05	-2.03046e-05	41	0.0000000E+000	2.5119e-07	6	1.2572e-11	0.000000000000000E+000	1972.47	0.000000000000000E+000	0.000000000000000E+000	2.5119e-07	2.5119e-07	0.0000000E+000	3	5.59167e-07
2	1	0	0	0	0	0	629.998	0.0500354	0.0506417	0.000765162	-2.02783e-05	-2.02783e-05	41	0.0000000E+000	2.58502e-07	6	1.29457e-11	0.000000000000000E+000	1316.7	0.000000000000000E+000	0.000000000000000E+000	2.58502e-07	2.58502e-07	0.0000000E+000	3	3.87491e-08
2	0	0	0	0	0	0	630.004	0.0500354	0.0499655	-0.00956533	-2.03081e-05	-2.03081e-05	41	0.0000000E+000	-8.28752e-09	7	1.29457e-11	-4.14747e-13	1316.7	76.5637	8.28752e-09	0.000000000000000E+000	8.28752e-09	0.0000000E+000	3	-4.77937e-07
2	0	0	0	0	0	0	630.024	0.0500354	0.0497248	-0.0092569	-2.0587e-05	-2.0587e-05	41	0.0000000E+000	-8.57669e-08	7	1.29457e-11	-4.28763e-12	1316.7	489.814	8.57669e-08	0.000000000000000E+000	8.57669e-08	0.0000000E+000	3	-4.60298e-07
2	1	0	0	0	0	0	630.032	0.0500354	0.0496331	0.000990377	-2.06196e-05	-2.06196e-05	41	0.0000000E+000	-1.868e-09	8	0.000000000000000E+000	-9.27147e-14	0.000000000000000E+000	0.000000000000000E+000	1.868e-09	0.000000000000000E+000	1.868e-09	0.0000000E+000	4	4.91555e-08
2	1	0	0	0	0	0	630.045	0.0500354	0.0505729	0.0112014	-2.05252e-05	-2.05252e-05	41	0.0000000E+000	2.43618e-08	8	1.32329e-12	-9.27147e-14	135.064	0.000000000000000E+000	0.000000000000000E+000	2.43618e-08	2.43618e-08	0.0000000E+000	4	5.66487e-07
2	1	0	0	0	0	0	630.068	0.0500354	0.0507105	0.0010045	-2.03334e-05	-2.03334e-05	41	0.0000000E+000	7.76537e-08	8	4.02358e-12	-9.27147e-14	342.163	0.000000000000000E+000	0.000000000000000E+000	7.76537e-08	7.76537e-08	0.0000000E+000	4	5.09387e-08
2	1	0	0	0	0	0	630.109	0.0500354	0.049996	0.000954495	-2.05081e-05	-2.05081e-05	41	0.0000000E+000	-4.56258e-08	10	0.000000000000000E+000	-2.28111e-12	0.000000000000000E+000	0.000000000000000E+000	4.56258e-08	0.000000000000000E+000	4.56258e-08	0.0000000E+000	5	4.7721e-08
2	0	0	0	0	0	0	631.15	0.0500354	0.0505767	-0.00289325	-2.35727e-05	-2.35727e-05	41	0.0000000E+000	-8.51262e-07	11	3.03116e-13	-4.56377e-11	0.000000000000000E+000	5597.28	8.51262e-07	0.000000000000000E+000	8.51262e-07	0.0000000E+000	5	-1.46331e-07
2	0	0	0	0	0	0	633.15	0.0500354	0.0506111	-0.0029715	-2.9176e-05	-2.9176e-05	41	0.0000000E+000	-2.40774e-06	11	3.03116e-13	-1.24046e-10	0.000000000000000E+000	14394.2	2.40774e-06	0.000000000000000E+000	2.40774e-06	0.0000000E+000	5	-1.50391e-07
2	0	0	0	0	0	0	635.15	0.0500354	0.0506722	-0.0018752	-3.40854e-05	-3.40854e-05	41	0.0000000E+000	-3.77146e-06	11	3.03116e-13	-1.92629e-10	0.000000000000000E+000	20353.2	3.77146e-06	0.000000000000000E+000	3.77146e-06	0.0000000E+000	5	-9.50205e-08
2	0	0	0	0	0	0	637.15	0.0500354	0.0500381	-0.00165953	-3.86494e-05	-3.86494e-05	41	0.0000000E+000	-5.03924e-06	11	3.03116e-13	-2.56467e-10	0.000000000000000E+000	436099	5.03924e-06	0.000000000000000E+000	5.03924e-06	0.0000000E+000	5	-8.30395e-08
2	0	0	0	0	0	0	639.15	0.0500354	0.0498929	-0.00252489	-4.3002e-05	-4.3002e-05	41	0.0000000E+000	-6.2483e-06	11	3.03116e-13	-3.1707e-10	0.000000000000000E+000	219872	6.2483e-06	0.000000000000000E+000	6.2483e-06	0.0000000E+000	5	-1.25974e-07
2	0	0	0	0	0	0	639.681	0.0500354	0.0500381	-0.00184504	-4.41304e-05	-4.41304e-05	41	0.0000000E+000	-6.56174e-06	11	3.03116e-13	-3.32753e-10	0.000000000000000E+000	566521	6.56174e-06	0.000000000000000E+000	6.56174e-06	109702	5	-9.23223e-08