File: multiple_techniques_dataset/multiple_techniques_dataset_01_05_CA_C01.mpt
EC-Lab ASCII FILE
Nb header lines : 61

Chronoamperometry / Chronocoulometry

Run on channel : 1 (SN 5836)
User :
Electrode connection : standard
Ewe ctrl range : min = -10.00 V, max = 10.00 V
Ewe,I filtering : <None>
Safety Limits :
	Do not start on E overload
Channel : Grounded
Acquisition started on : 05/05/2022 15:55:02
Saved on :
	File : multiple_techniques_dataset_01_05_CA_C01.mpr
	Directory : C:\Users\Spectro Inlets\Desktop\Zilien Data Dir\multiple_techniques_dataset\
	Host : 192.168.1.105
Device : SP-200 (SN 0763)
Address : USB
EC-Lab for windows v11.27 (software)
Internet server v11.25 (firmware)
Command interpretor v11.27 (firmware)
Electrode material :
Initial state :
Electrolyte :
Comments :
Cable : standard
Electrode surface area : 0.001 cm²
Characteristic mass : 0.001 g
Equivalent Weight : 0.000 g/eq.
Density : 0.000 g/cm3
Cycle Definition : Charge/Discharge alternance
Ns                  0                   1                   2
Ei (V)              0.050               1.600               0.200
vs.                 Ref                 Ref                 Ref
ti (h:m:s)          0:00:10.0000        0:00:10.0000        0:00:10.0000
Imax                pass                pass                pass
unit Imax           mA                  mA                  mA
Imin                pass                pass                pass
unit Imin           mA                  mA                  mA
dQM                 0.000               0.000               0.000
unit dQM            mA.h                mA.h                mA.h
record              <I>                 <I>                 <I>
dI                  5.000               5.000               5.000
unit dI             µA                  µA                  µA
dQ                  0.000               0.000               0.000
unit dQ             mA.h                mA.h                mA.h
dt (s)              1.0000              1.0000              1.0000
dta (s)             1.0000              0.1000              0.1000
E range min (V)     -10.000             -10.000             -10.000
E range max (V)     10.000              10.000              10.000
I Range             100 µA              100 µA              100 µA
I Range min         Unset               Unset               Unset
I Range max         Unset               Unset               Unset
I Range init        Unset               Unset               Unset
Bandwidth           1                   1                   1
goto Ns'            0                   0                   0
nc cycles           0                   0                   0

mode	ox/red	error	control changes	Ns changes	counter inc.	Ns	time/s	control/V	Ewe/V	<I>/mA	dQ/C	(Q-Qo)/C	I Range	Rcmp/Ohm	Q charge/discharge/mA.h	half cycle	Energy charge/W.h	Energy discharge/W.h	Capacitance charge/µF	Capacitance discharge/µF	Q discharge/mA.h	Q charge/mA.h	Capacity/mA.h	Efficiency/%	cycle number	P/W
2	0	1	0	0	0	0	600.581	0.0500354	0.0497974	-0.0364021	-3.64021e-05	-3.64021e-05	41	0.0000000E+000	-1.01117e-05	0	0.000000000000000E+000	-5.03536e-10	0.000000000000000E+000	0.000000000000000E+000	1.01117e-05	0.000000000000000E+000	1.01117e-05	0.0000000E+000	0.000000000000000E+000	-1.81273e-06
2	0	0	0	0	0	0	601.581	0.0500354	0.0508442	-0.00344099	-3.98431e-05	-3.98431e-05	41	0.0000000E+000	-1.10675e-05	0	0.000000000000000E+000	-5.52135e-10	0.000000000000000E+000	38062.4	1.10675e-05	0.000000000000000E+000	1.10675e-05	0.0000000E+000	0.000000000000000E+000	-1.74954e-07
2	0	0	0	0	0	0	602.581	0.0500354	0.0507678	-0.00297683	-4.282e-05	-4.282e-05	41	0.0000000E+000	-1.18944e-05	0	0.000000000000000E+000	-5.94114e-10	0.000000000000000E+000	44127.1	1.18944e-05	0.000000000000000E+000	1.18944e-05	0.0000000E+000	0.000000000000000E+000	-1.51127e-07
2	0	0	0	0	0	0	603.581	0.0500354	0.0508976	-0.00272181	-4.55418e-05	-4.55418e-05	41	0.0000000E+000	-1.26505e-05	0	0.000000000000000E+000	-6.32596e-10	0.000000000000000E+000	41391.4	1.26505e-05	0.000000000000000E+000	1.26505e-05	0.0000000E+000	0.000000000000000E+000	-1.38533e-07
2	0	0	0	0	0	0	604.581	0.0500354	0.0493886	-0.00254845	-4.80902e-05	-4.80902e-05	41	0.0000000E+000	-1.33584e-05	0	0.000000000000000E+000	-6.67558e-10	0.000000000000000E+000	117642	1.33584e-05	0.000000000000000E+000	1.33584e-05	0.0000000E+000	0.000000000000000E+000	-1.25864e-07
2	0	0	0	0	0	0	605.581	0.0500354	0.0506073	-0.00243274	-5.0523e-05	-5.0523e-05	41	0.0000000E+000	-1.40342e-05	0	0.000000000000000E+000	-7.01757e-10	0.000000000000000E+000	62380.2	1.40342e-05	0.000000000000000E+000	1.40342e-05	0.0000000E+000	0.000000000000000E+000	-1.23114e-07
2	0	0	0	0	0	0	606.581	0.0500354	0.0499043	-0.00235047	-5.28734e-05	-5.28734e-05	41	0.0000000E+000	-1.46871e-05	0	0.000000000000000E+000	-7.3434e-10	0.000000000000000E+000	494275	1.46871e-05	0.000000000000000E+000	1.46871e-05	0.0000000E+000	0.000000000000000E+000	-1.17299e-07
2	0	0	0	0	0	0	607.581	0.0500354	0.049721	-0.00229231	-5.51657e-05	-5.51657e-05	41	0.0000000E+000	-1.53238e-05	0	0.000000000000000E+000	-7.66e-10	0.000000000000000E+000	721975	1.53238e-05	0.000000000000000E+000	1.53238e-05	0.0000000E+000	0.000000000000000E+000	-1.13976e-07
2	0	0	0	0	0	0	608.581	0.0500354	0.0498241	-0.00222972	-5.73955e-05	-5.73955e-05	41	0.0000000E+000	-1.59432e-05	0	0.000000000000000E+000	-7.96859e-10	0.000000000000000E+000	2.14642e+06	1.59432e-05	0.000000000000000E+000	1.59432e-05	0.0000000E+000	0.000000000000000E+000	-1.11094e-07
2	0	0	0	0	0	0	609.581	0.0500354	0.0499043	-0.00218554	-5.95806e-05	-5.95806e-05	41	0.0000000E+000	-1.65502e-05	0	0.000000000000000E+000	-8.2715e-10	0.000000000000000E+000	556975	1.65502e-05	0.000000000000000E+000	1.65502e-05	0.0000000E+000	0.000000000000000E+000	-1.09068e-07
2	1	1	1	1	0	1	610.006	1.5999	1.60261	0.250228	0.000106447	4.68666e-05	41	0.0000000E+000	2.95687e-05	2	4.73872e-08	0.000000000000000E+000	0.000000000000000E+000	0.000000000000000E+000	0.000000000000000E+000	2.95687e-05	2.95687e-05	0.0000000E+000	1	0.00040102
2	1	0	1	0	0	1	610.106	1.5999	1.60019	0.135925	0.00012004	6.04591e-05	41	0.0000000E+000	3.33443e-05	2	5.3429e-08	0.000000000000000E+000	49484.8	0.000000000000000E+000	0.000000000000000E+000	3.33443e-05	3.33443e-05	0.0000000E+000	1	0.000217505
2	1	0	1	0	0	1	610.206	1.5999	1.60011	0.0749119	0.000127531	6.79503e-05	41	0.0000000E+000	3.54252e-05	2	5.67586e-08	0.000000000000000E+000	50887.4	0.000000000000000E+000	0.000000000000000E+000	3.54252e-05	3.54252e-05	0.0000000E+000	1	0.000119867
2	1	0	1	0	0	1	610.306	1.5999	1.60072	0.0565729	0.000133188	7.36075e-05	41	0.0000000E+000	3.69967e-05	2	5.92741e-08	0.000000000000000E+000	70149	0.000000000000000E+000	0.000000000000000E+000	3.69967e-05	3.69967e-05	0.0000000E+000	1	9.05571e-05
2	1	0	1	0	0	1	610.406	1.5999	1.60027	0.0468255	0.000137871	7.82901e-05	41	0.0000000E+000	3.82974e-05	2	6.13556e-08	0.000000000000000E+000	58872.1	0.000000000000000E+000	0.000000000000000E+000	3.82974e-05	3.82974e-05	0.0000000E+000	1	7.49335e-05
2	1	0	1	0	0	1	610.506	1.5999	1.59976	0.0405849	0.000141929	8.23486e-05	41	0.0000000E+000	3.94248e-05	2	6.31591e-08	0.000000000000000E+000	49734.2	0.000000000000000E+000	0.000000000000000E+000	3.94248e-05	3.94248e-05	0.0000000E+000	1	6.49261e-05
2	1	0	1	0	0	1	610.606	1.5999	1.5998	0.036174	0.000145547	8.5966e-05	41	0.0000000E+000	4.04296e-05	2	6.47666e-08	0.000000000000000E+000	51692.8	0.000000000000000E+000	0.000000000000000E+000	4.04296e-05	4.04296e-05	0.0000000E+000	1	5.78711e-05
2	1	0	1	0	0	1	610.706	1.5999	1.60068	0.0328734	0.000148834	8.92533e-05	41	0.0000000E+000	4.13427e-05	2	6.62283e-08	0.000000000000000E+000	76992.4	0.000000000000000E+000	0.000000000000000E+000	4.13427e-05	4.13427e-05	0.0000000E+000	1	5.26199e-05
2	1	0	1	0	0	1	610.806	1.5999	1.60038	0.0302651	0.00015186	9.22798e-05	41	0.0000000E+000	4.21834e-05	2	6.75737e-08	0.000000000000000E+000	67952.1	0.000000000000000E+000	0.000000000000000E+000	4.21834e-05	4.21834e-05	0.0000000E+000	1	4.84357e-05
2	1	0	1	0	0	1	610.906	1.5999	1.60009	0.0281652	0.000154677	9.50964e-05	41	0.0000000E+000	4.29658e-05	2	6.88256e-08	0.000000000000000E+000	61253.1	0.000000000000000E+000	0.000000000000000E+000	4.29658e-05	4.29658e-05	0.0000000E+000	1	4.50669e-05
2	1	0	1	0	0	1	611.006	1.5999	1.60083	0.0264203	0.000157319	9.77384e-05	41	0.0000000E+000	4.36997e-05	2	7.00004e-08	0.000000000000000E+000	88184.9	0.000000000000000E+000	0.000000000000000E+000	4.36997e-05	4.36997e-05	0.0000000E+000	1	4.22945e-05
2	1	0	1	0	0	1	611.106	1.5999	1.60004	0.024939	0.000159813	0.000100232	41	0.0000000E+000	4.43925e-05	2	7.11089e-08	0.000000000000000E+000	62157.2	0.000000000000000E+000	0.000000000000000E+000	4.43925e-05	4.43925e-05	0.0000000E+000	1	3.99035e-05
2	1	0	1	0	0	1	611.206	1.5999	1.60058	0.0236733	0.00016218	0.0001026	41	0.0000000E+000	4.50501e-05	2	7.21614e-08	0.000000000000000E+000	79647.9	0.000000000000000E+000	0.000000000000000E+000	4.50501e-05	4.50501e-05	0.0000000E+000	1	3.7891e-05
2	1	0	1	0	0	1	611.306	1.5999	1.59976	0.0225638	0.000164437	0.000104856	41	0.0000000E+000	4.56768e-05	2	7.31641e-08	0.000000000000000E+000	57544.3	0.000000000000000E+000	0.000000000000000E+000	4.56768e-05	4.56768e-05	0.0000000E+000	1	3.60966e-05
2	1	0	1	0	0	1	611.406	1.5999	1.60078	0.0215933	0.000166596	0.000107015	41	0.0000000E+000	4.62766e-05	2	7.41242e-08	0.000000000000000E+000	91036.9	0.000000000000000E+000	0.000000000000000E+000	4.62766e-05	4.62766e-05	0.0000000E+000	1	3.45662e-05
2	1	0	1	0	0	1	611.506	1.5999	1.59986	0.0207223	0.000168668	0.000109088	41	0.0000000E+000	4.68523e-05	2	7.50451e-08	0.000000000000000E+000	61150.1	0.000000000000000E+000	0.000000000000000E+000	4.68523e-05	4.68523e-05	0.0000000E+000	1	3.31527e-05
2	1	0	1	0	0	1	611.606	1.5999	1.60037	0.0199389	0.000170662	0.000111081	41	0.0000000E+000	4.74061e-05	2	7.59315e-08	0.000000000000000E+000	76105.3	0.000000000000000E+000	0.000000000000000E+000	4.74061e-05	4.74061e-05	0.0000000E+000	1	3.19097e-05
2	1	0	1	0	0	1	611.706	1.5999	1.60007	0.0192457	0.000172587	0.000113006	41	0.0000000E+000	4.79407e-05	2	7.67869e-08	0.000000000000000E+000	67934.9	0.000000000000000E+000	0.000000000000000E+000	4.79407e-05	4.79407e-05	0.0000000E+000	1	3.07945e-05
2	1	0	1	0	0	1	611.806	1.5999	1.60002	0.0186141	0.000174448	0.000114867	41	0.0000000E+000	4.84578e-05	2	7.76142e-08	0.000000000000000E+000	67250.7	0.000000000000000E+000	0.000000000000000E+000	4.84578e-05	4.84578e-05	0.0000000E+000	1	2.97829e-05
2	1	0	1	0	0	1	611.906	1.5999	1.60117	0.0180306	0.000176251	0.00011667	41	0.0000000E+000	4.89586e-05	2	7.84162e-08	0.000000000000000E+000	121727	0.000000000000000E+000	0.000000000000000E+000	4.89586e-05	4.89586e-05	0.0000000E+000	1	2.887e-05
2	1	0	1	0	0	1	612.006	1.5999	1.59965	0.0175052	0.000178002	0.000118421	41	0.0000000E+000	4.94449e-05	2	7.9194e-08	0.000000000000000E+000	60121.8	0.000000000000000E+000	0.000000000000000E+000	4.94449e-05	4.94449e-05	0.0000000E+000	1	2.80023e-05
2	1	0	1	0	0	1	612.106	1.5999	1.60078	0.0170242	0.000179704	0.000120123	41	0.0000000E+000	4.99178e-05	2	7.9951e-08	0.000000000000000E+000	97798.5	0.000000000000000E+000	0.000000000000000E+000	4.99178e-05	4.99178e-05	0.0000000E+000	1	2.72519e-05
2	1	0	1	0	0	1	612.206	1.5999	1.60055	0.0165729	0.000181361	0.000121781	41	0.0000000E+000	5.03781e-05	2	8.06878e-08	0.000000000000000E+000	87752.7	0.000000000000000E+000	0.000000000000000E+000	5.03781e-05	5.03781e-05	0.0000000E+000	1	2.65257e-05
2	1	0	1	0	0	1	612.306	1.5999	1.60036	0.0161589	0.000182977	0.000123397	41	0.0000000E+000	5.0827e-05	2	8.14062e-08	0.000000000000000E+000	81316.2	0.000000000000000E+000	0.000000000000000E+000	5.0827e-05	5.0827e-05	0.0000000E+000	1	2.58601e-05
2	1	0	1	0	0	1	612.406	1.5999	1.59985	0.0157644	0.000184554	0.000124973	41	0.0000000E+000	5.12649e-05	2	8.21067e-08	0.000000000000000E+000	66724.8	0.000000000000000E+000	0.000000000000000E+000	5.12649e-05	5.12649e-05	0.0000000E+000	1	2.52206e-05
2	1	0	1	0	0	1	612.506	1.5999	1.60069	0.0154021	0.000186094	0.000126513	41	0.0000000E+000	5.16927e-05	2	8.27916e-08	0.000000000000000E+000	96654.6	0.000000000000000E+000	0.000000000000000E+000	5.16927e-05	5.16927e-05	0.0000000E+000	1	2.4654e-05
2	1	0	1	0	0	1	612.606	1.5999	1.59982	0.015064	0.0001876	0.00012802	41	0.0000000E+000	5.21112e-05	2	8.3461e-08	0.000000000000000E+000	67174.8	0.000000000000000E+000	0.000000000000000E+000	5.21112e-05	5.21112e-05	0.0000000E+000	1	2.40998e-05
2	1	0	1	0	0	1	612.706	1.5999	1.5994	0.0147464	0.000189075	0.000129494	41	0.0000000E+000	5.25208e-05	2	8.41162e-08	0.000000000000000E+000	58778.3	0.000000000000000E+000	0.000000000000000E+000	5.25208e-05	5.25208e-05	0.0000000E+000	1	2.35853e-05
2	1	0	1	0	0	1	612.806	1.5999	1.59919	0.0144366	0.000190519	0.000130938	41	0.0000000E+000	5.29218e-05	2	8.47575e-08	0.000000000000000E+000	55658.7	0.000000000000000E+000	0.000000000000000E+000	5.29218e-05	5.29218e-05	0.0000000E+000	1	2.3087e-05
2	1	0	1	0	0	1	612.906	1.5999	1.60016	0.0141583	0.000191934	0.000132354	41	0.0000000E+000	5.33151e-05	2	8.53868e-08	0.000000000000000E+000	78257.1	0.000000000000000E+000	0.000000000000000E+000	5.33151e-05	5.33151e-05	0.0000000E+000	1	2.26556e-05
2	1	0	1	0	0	1	613.006	1.5999	1.6002	0.0139034	0.000193325	0.000133744	41	0.0000000E+000	5.37013e-05	2	8.60048e-08	0.000000000000000E+000	80069.4	0.000000000000000E+000	0.000000000000000E+000	5.37013e-05	5.37013e-05	0.0000000E+000	1	2.22482e-05
2	1	0	1	0	0	1	613.106	1.5999	1.59981	0.0136446	0.000194689	0.000135109	41	0.0000000E+000	5.40803e-05	2	8.66111e-08	0.000000000000000E+000	69526.2	0.000000000000000E+000	0.000000000000000E+000	5.40803e-05	5.40803e-05	0.0000000E+000	1	2.18288e-05
2	1	0	1	0	0	1	613.206	1.5999	1.60021	0.013415	0.000196031	0.00013645	41	0.0000000E+000	5.4453e-05	2	8.72074e-08	0.000000000000000E+000	81451.5	0.000000000000000E+000	0.000000000000000E+000	5.4453e-05	5.4453e-05	0.0000000E+000	1	2.14667e-05
2	1	0	1	0	0	1	613.306	1.5999	1.60012	0.0131784	0.000197348	0.000137768	41	0.0000000E+000	5.4819e-05	2	8.77932e-08	0.000000000000000E+000	79232.3	0.000000000000000E+000	0.000000000000000E+000	5.4819e-05	5.4819e-05	0.0000000E+000	1	2.10871e-05
2	1	0	1	0	0	1	613.406	1.5999	1.60099	0.0129527	0.000198644	0.000139063	41	0.0000000E+000	5.51788e-05	2	8.83692e-08	0.000000000000000E+000	122634	0.000000000000000E+000	0.000000000000000E+000	5.51788e-05	5.51788e-05	0.0000000E+000	1	2.07372e-05
2	1	0	1	0	0	1	613.506	1.5999	1.59999	0.0127493	0.000199919	0.000140338	41	0.0000000E+000	5.5533e-05	2	8.89359e-08	0.000000000000000E+000	76284.5	0.000000000000000E+000	0.000000000000000E+000	5.5533e-05	5.5533e-05	0.0000000E+000	1	2.03989e-05
2	1	0	1	0	0	1	613.606	1.5999	1.59958	0.0125573	0.000201174	0.000141594	41	0.0000000E+000	5.58818e-05	2	8.94938e-08	0.000000000000000E+000	66322.4	0.000000000000000E+000	0.000000000000000E+000	5.58818e-05	5.58818e-05	0.0000000E+000	1	2.00865e-05
2	1	0	1	0	0	1	613.706	1.5999	1.60013	0.0123651	0.000202411	0.00014283	41	0.0000000E+000	5.62253e-05	2	9.00434e-08	0.000000000000000E+000	81385.5	0.000000000000000E+000	0.000000000000000E+000	5.62253e-05	5.62253e-05	0.0000000E+000	1	1.97858e-05
2	1	0	1	0	0	1	613.806	1.5999	1.60045	0.0121892	0.00020363	0.000144049	41	0.0000000E+000	5.65638e-05	2	9.05853e-08	0.000000000000000E+000	94010.5	0.000000000000000E+000	0.000000000000000E+000	5.65638e-05	5.65638e-05	0.0000000E+000	1	1.95083e-05
2	1	0	1	0	0	1	613.906	1.5999	1.59976	0.0120124	0.000204831	0.000145251	41	0.0000000E+000	5.68975e-05	2	9.11191e-08	0.000000000000000E+000	71869.2	0.000000000000000E+000	0.000000000000000E+000	5.68975e-05	5.68975e-05	0.0000000E+000	1	1.9217e-05
2	1	0	1	0	0	1	614.006	1.5999	1.60084	0.0118397	0.000206015	0.000146435	41	0.0000000E+000	5.72264e-05	2	9.16456e-08	0.000000000000000E+000	116219	0.000000000000000E+000	0.000000000000000E+000	5.72264e-05	5.72264e-05	0.0000000E+000	1	1.89535e-05
2	1	0	1	0	0	1	614.106	1.5999	1.59982	0.0116831	0.000207183	0.000147603	41	0.0000000E+000	5.75509e-05	2	9.21648e-08	0.000000000000000E+000	74190.2	0.000000000000000E+000	0.000000000000000E+000	5.75509e-05	5.75509e-05	0.0000000E+000	1	1.86908e-05
2	1	0	1	0	0	1	614.206	1.5999	1.60035	0.0115274	0.000208336	0.000148756	41	0.0000000E+000	5.78711e-05	2	9.26773e-08	0.000000000000000E+000	91962.2	0.000000000000000E+000	0.000000000000000E+000	5.78711e-05	5.78711e-05	0.0000000E+000	1	1.84479e-05
2	1	0	1	0	0	1	614.306	1.5999	1.59948	0.0113931	0.000209475	0.000149895	41	0.0000000E+000	5.81876e-05	2	9.31834e-08	0.000000000000000E+000	66786	0.000000000000000E+000	0.000000000000000E+000	5.81876e-05	5.81876e-05	0.0000000E+000	1	1.8223e-05
2	1	0	1	0	0	1	614.406	1.5999	1.60047	0.0112533	0.000210601	0.00015102	41	0.0000000E+000	5.85002e-05	2	9.36837e-08	0.000000000000000E+000	98267.2	0.000000000000000E+000	0.000000000000000E+000	5.85002e-05	5.85002e-05	0.0000000E+000	1	1.80106e-05
2	1	0	1	0	0	1	614.506	1.5999	1.60109	0.0111173	0.000211712	0.000152132	41	0.0000000E+000	5.8809e-05	2	9.41782e-08	0.000000000000000E+000	138553	0.000000000000000E+000	0.000000000000000E+000	5.8809e-05	5.8809e-05	0.0000000E+000	1	1.77997e-05
2	1	0	1	0	0	1	614.606	1.5999	1.60032	0.0109916	0.000212812	0.000153231	41	0.0000000E+000	5.91143e-05	2	9.46668e-08	0.000000000000000E+000	92689.2	0.000000000000000E+000	0.000000000000000E+000	5.91143e-05	5.91143e-05	0.0000000E+000	1	1.75901e-05
2	1	0	1	0	0	1	614.706	1.5999	1.60056	0.0108609	0.000213898	0.000154317	41	0.0000000E+000	5.9416e-05	2	9.51497e-08	0.000000000000000E+000	104072	0.000000000000000E+000	0.000000000000000E+000	5.9416e-05	5.9416e-05	0.0000000E+000	1	1.73835e-05
2	1	0	1	0	0	1	614.806	1.5999	1.59926	0.0107384	0.000214972	0.000155391	41	0.0000000E+000	5.97143e-05	2	9.56267e-08	0.000000000000000E+000	64017.6	0.000000000000000E+000	0.000000000000000E+000	5.97143e-05	5.97143e-05	0.0000000E+000	1	1.71734e-05
2	1	0	1	0	0	1	614.906	1.5999	1.60103	0.0106145	0.000216033	0.000156452	41	0.0000000E+000	6.00092e-05	2	9.60988e-08	0.000000000000000E+000	136596	0.000000000000000E+000	0.000000000000000E+000	6.00092e-05	6.00092e-05	0.0000000E+000	1	1.69941e-05
2	1	0	1	0	0	1	615.006	1.5999	1.60124	0.0104919	0.000217082	0.000157502	41	0.0000000E+000	6.03006e-05	2	9.65654e-08	0.000000000000000E+000	158281	0.000000000000000E+000	0.000000000000000E+000	6.03006e-05	6.03006e-05	0.0000000E+000	1	1.68001e-05
2	1	0	1	0	0	1	615.106	1.5999	1.60018	0.0103882	0.000218121	0.00015854	41	0.0000000E+000	6.05892e-05	2	9.70272e-08	0.000000000000000E+000	89490.9	0.000000000000000E+000	0.000000000000000E+000	6.05892e-05	6.05892e-05	0.0000000E+000	1	1.6623e-05
2	1	0	1	0	0	1	615.206	1.5999	1.6003	0.0102877	0.00021915	0.000159569	41	0.0000000E+000	6.08749e-05	2	9.74845e-08	0.000000000000000E+000	94663.3	0.000000000000000E+000	0.000000000000000E+000	6.08749e-05	6.08749e-05	0.0000000E+000	1	1.64635e-05
2	1	0	1	0	0	1	615.306	1.5999	1.59984	0.01018	0.000220168	0.000160587	41	0.0000000E+000	6.11577e-05	2	9.79369e-08	0.000000000000000E+000	79273	0.000000000000000E+000	0.000000000000000E+000	6.11577e-05	6.11577e-05	0.0000000E+000	1	1.62864e-05
2	1	0	1	0	0	1	615.406	1.5999	1.6003	0.0100707	0.000221175	0.000161594	41	0.0000000E+000	6.14375e-05	2	9.83846e-08	0.000000000000000E+000	95376	0.000000000000000E+000	0.000000000000000E+000	6.14375e-05	6.14375e-05	0.0000000E+000	1	1.6116e-05
2	1	0	1	0	0	1	615.506	1.5999	1.60082	0.00998187	0.000222173	0.000162592	41	0.0000000E+000	6.17147e-05	2	9.88284e-08	0.000000000000000E+000	123474	0.000000000000000E+000	0.000000000000000E+000	6.17147e-05	6.17147e-05	0.0000000E+000	1	1.59791e-05
2	1	0	1	0	0	1	615.606	1.5999	1.60147	0.0098902	0.000223162	0.000163582	41	0.0000000E+000	6.19895e-05	2	9.92684e-08	0.000000000000000E+000	194738	0.000000000000000E+000	0.000000000000000E+000	6.19895e-05	6.19895e-05	0.0000000E+000	1	1.58388e-05
2	1	0	1	0	0	1	615.706	1.5999	1.59973	0.00981191	0.000224143	0.000164563	41	0.0000000E+000	6.2262e-05	2	9.97044e-08	0.000000000000000E+000	77712.3	0.000000000000000E+000	0.000000000000000E+000	6.2262e-05	6.2262e-05	0.0000000E+000	1	1.56964e-05
2	1	0	1	0	0	1	615.806	1.5999	1.59993	0.00971726	0.000225115	0.000165534	41	0.0000000E+000	6.25319e-05	2	1.00136e-07	0.000000000000000E+000	83702	0.000000000000000E+000	0.000000000000000E+000	6.25319e-05	6.25319e-05	0.0000000E+000	1	1.55469e-05
2	1	0	1	0	0	1	615.906	1.5999	1.60092	0.00962691	0.000226078	0.000166497	41	0.0000000E+000	6.27994e-05	2	1.00564e-07	0.000000000000000E+000	133283	0.000000000000000E+000	0.000000000000000E+000	6.27994e-05	6.27994e-05	0.0000000E+000	1	1.54119e-05
2	1	0	1	0	0	1	616.006	1.5999	1.59959	0.0095264	0.00022703	0.00016745	41	0.0000000E+000	6.3064e-05	2	1.00988e-07	0.000000000000000E+000	75035.2	0.000000000000000E+000	0.000000000000000E+000	6.3064e-05	6.3064e-05	0.0000000E+000	1	1.52383e-05
2	1	0	1	0	0	1	616.106	1.5999	1.60039	0.00944873	0.000227975	0.000168395	41	0.0000000E+000	6.33264e-05	2	1.01408e-07	0.000000000000000E+000	102360	0.000000000000000E+000	0.000000000000000E+000	6.33264e-05	6.33264e-05	0.0000000E+000	1	1.51216e-05
2	1	0	1	0	0	1	616.206	1.5999	1.6004	0.0093785	0.000228913	0.000169332	41	0.0000000E+000	6.3587e-05	2	1.01825e-07	0.000000000000000E+000	103312	0.000000000000000E+000	0.000000000000000E+000	6.3587e-05	6.3587e-05	0.0000000E+000	1	1.50093e-05
2	1	0	1	0	0	1	616.306	1.5999	1.59956	0.00930723	0.000229844	0.000170263	41	0.0000000E+000	6.38455e-05	2	1.02238e-07	0.000000000000000E+000	75206.5	0.000000000000000E+000	0.000000000000000E+000	6.38455e-05	6.38455e-05	0.0000000E+000	1	1.48875e-05
2	1	0	1	0	0	1	616.406	1.5999	1.60036	0.00922471	0.000230766	0.000171186	41	0.0000000E+000	6.41017e-05	2	1.02648e-07	0.000000000000000E+000	102213	0.000000000000000E+000	0.000000000000000E+000	6.41017e-05	6.41017e-05	0.0000000E+000	1	1.47628e-05
2	1	0	1	0	0	1	616.506	1.5999	1.6003	0.00915041	0.000231681	0.000172101	41	0.0000000E+000	6.43559e-05	2	1.03055e-07	0.000000000000000E+000	100242	0.000000000000000E+000	0.000000000000000E+000	6.43559e-05	6.43559e-05	0.0000000E+000	1	1.46434e-05
2	1	0	1	0	0	1	616.606	1.5999	1.60037	0.00907858	0.000232589	0.000173009	41	0.0000000E+000	6.46081e-05	2	1.03459e-07	0.000000000000000E+000	103545	0.000000000000000E+000	0.000000000000000E+000	6.46081e-05	6.46081e-05	0.0000000E+000	1	1.45291e-05
2	1	0	1	0	0	1	616.706	1.5999	1.59981	0.0090087	0.00023349	0.000173909	41	0.0000000E+000	6.48583e-05	2	1.03859e-07	0.000000000000000E+000	83379	0.000000000000000E+000	0.000000000000000E+000	6.48583e-05	6.48583e-05	0.0000000E+000	1	1.44123e-05
2	1	0	1	0	0	1	616.806	1.5999	1.60023	0.00893464	0.000234383	0.000174803	41	0.0000000E+000	6.51065e-05	2	1.04256e-07	0.000000000000000E+000	98479.9	0.000000000000000E+000	0.000000000000000E+000	6.51065e-05	6.51065e-05	0.0000000E+000	1	1.42975e-05
2	1	0	1	0	0	1	616.906	1.5999	1.60076	0.00887155	0.000235271	0.00017569	41	0.0000000E+000	6.5353e-05	2	1.04651e-07	0.000000000000000E+000	126724	0.000000000000000E+000	0.000000000000000E+000	6.5353e-05	6.5353e-05	0.0000000E+000	1	1.42012e-05
2	1	0	1	0	0	1	617.006	1.5999	1.60128	0.00879994	0.000236151	0.00017657	41	0.0000000E+000	6.55974e-05	2	1.05042e-07	0.000000000000000E+000	177126	0.000000000000000E+000	0.000000000000000E+000	6.55974e-05	6.55974e-05	0.0000000E+000	1	1.40912e-05
2	1	0	1	0	0	1	617.106	1.5999	1.60013	0.00874393	0.000237025	0.000177444	41	0.0000000E+000	6.58403e-05	2	1.05431e-07	0.000000000000000E+000	95454.1	0.000000000000000E+000	0.000000000000000E+000	6.58403e-05	6.58403e-05	0.0000000E+000	1	1.39914e-05
2	1	0	1	0	0	1	617.206	1.5999	1.60096	0.00867442	0.000237892	0.000178312	41	0.0000000E+000	6.60812e-05	2	1.05816e-07	0.000000000000000E+000	143816	0.000000000000000E+000	0.000000000000000E+000	6.60812e-05	6.60812e-05	0.0000000E+000	1	1.38874e-05
2	1	0	1	0	0	1	617.306	1.5999	1.59989	0.00861804	0.000238754	0.000179174	41	0.0000000E+000	6.63206e-05	2	1.06199e-07	0.000000000000000E+000	87650.6	0.000000000000000E+000	0.000000000000000E+000	6.63206e-05	6.63206e-05	0.0000000E+000	1	1.37879e-05
2	1	0	1	0	0	1	617.406	1.5999	1.59951	0.00855911	0.00023961	0.00018003	41	0.0000000E+000	6.65584e-05	2	1.0658e-07	0.000000000000000E+000	77242.2	0.000000000000000E+000	0.000000000000000E+000	6.65584e-05	6.65584e-05	0.0000000E+000	1	1.36904e-05
2	1	0	1	0	0	1	617.506	1.5999	1.59975	0.00849027	0.000240459	0.000180879	41	0.0000000E+000	6.67942e-05	2	1.06957e-07	0.000000000000000E+000	84036.1	0.000000000000000E+000	0.000000000000000E+000	6.67942e-05	6.67942e-05	0.0000000E+000	1	1.35823e-05
2	1	0	1	0	0	1	617.606	1.5999	1.59986	0.00843226	0.000241302	0.000181722	41	0.0000000E+000	6.70285e-05	2	1.07332e-07	0.000000000000000E+000	87483.4	0.000000000000000E+000	0.000000000000000E+000	6.70285e-05	6.70285e-05	0.0000000E+000	1	1.34904e-05
2	1	0	1	0	0	1	617.706	1.5999	1.6003	0.00838967	0.000242141	0.000182561	41	0.0000000E+000	6.72615e-05	2	1.07705e-07	0.000000000000000E+000	104767	0.000000000000000E+000	0.000000000000000E+000	6.72615e-05	6.72615e-05	0.0000000E+000	1	1.3426e-05
2	1	0	1	0	0	1	617.806	1.5999	1.60041	0.00832357	0.000242974	0.000183393	41	0.0000000E+000	6.74927e-05	2	1.08075e-07	0.000000000000000E+000	110227	0.000000000000000E+000	0.000000000000000E+000	6.74927e-05	6.74927e-05	0.0000000E+000	1	1.33211e-05
2	1	0	1	0	0	1	617.906	1.5999	1.59996	0.00826639	0.0002438	0.00018422	41	0.0000000E+000	6.77223e-05	2	1.08442e-07	0.000000000000000E+000	91953.9	0.000000000000000E+000	0.000000000000000E+000	6.77223e-05	6.77223e-05	0.0000000E+000	1	1.32259e-05
2	1	0	1	0	0	1	618.006	1.5999	1.59923	0.00822597	0.000244623	0.000185042	41	0.0000000E+000	6.79508e-05	2	1.08808e-07	0.000000000000000E+000	72191.6	0.000000000000000E+000	0.000000000000000E+000	6.79508e-05	6.79508e-05	0.0000000E+000	1	1.31552e-05
2	1	0	1	0	0	1	618.106	1.5999	1.60007	0.00816709	0.00024544	0.000185859	41	0.0000000E+000	6.81777e-05	2	1.09171e-07	0.000000000000000E+000	96467.1	0.000000000000000E+000	0.000000000000000E+000	6.81777e-05	6.81777e-05	0.0000000E+000	1	1.30679e-05
2	1	0	1	0	0	1	618.206	1.5999	1.59999	0.00812414	0.000246252	0.000186672	41	0.0000000E+000	6.84034e-05	2	1.09532e-07	0.000000000000000E+000	93964.4	0.000000000000000E+000	0.000000000000000E+000	6.84034e-05	6.84034e-05	0.0000000E+000	1	1.29986e-05
2	1	0	1	0	0	1	618.306	1.5999	1.60027	0.00807429	0.00024706	0.000187479	41	0.0000000E+000	6.86277e-05	2	1.0989e-07	0.000000000000000E+000	105502	0.000000000000000E+000	0.000000000000000E+000	6.86277e-05	6.86277e-05	0.0000000E+000	1	1.29211e-05
2	1	0	1	0	0	1	618.406	1.5999	1.5996	0.00801954	0.000247861	0.000188281	41	0.0000000E+000	6.88504e-05	2	1.10247e-07	0.000000000000000E+000	82231.1	0.000000000000000E+000	0.000000000000000E+000	6.88504e-05	6.88504e-05	0.0000000E+000	1	1.28281e-05
2	1	0	1	0	0	1	618.506	1.5999	1.60056	0.00796742	0.000248658	0.000189078	41	0.0000000E+000	6.90717e-05	2	1.10601e-07	0.000000000000000E+000	120985	0.000000000000000E+000	0.000000000000000E+000	6.90717e-05	6.90717e-05	0.0000000E+000	1	1.27523e-05
2	1	0	1	0	0	1	618.606	1.5999	1.59991	0.00792174	0.00024945	0.00018987	41	0.0000000E+000	6.92918e-05	2	1.10953e-07	0.000000000000000E+000	92227.1	0.000000000000000E+000	0.000000000000000E+000	6.92918e-05	6.92918e-05	0.0000000E+000	1	1.26741e-05
2	1	0	1	0	0	1	618.706	1.5999	1.60041	0.00787766	0.000250238	0.000190658	41	0.0000000E+000	6.95106e-05	2	1.11303e-07	0.000000000000000E+000	113529	0.000000000000000E+000	0.000000000000000E+000	6.95106e-05	6.95106e-05	0.0000000E+000	1	1.26075e-05
2	1	0	1	0	0	1	618.806	1.5999	1.59955	0.00783401	0.000251022	0.000191441	41	0.0000000E+000	6.97282e-05	2	1.11651e-07	0.000000000000000E+000	82030.4	0.000000000000000E+000	0.000000000000000E+000	6.97282e-05	6.97282e-05	0.0000000E+000	1	1.25309e-05
2	1	0	1	0	0	1	618.906	1.5999	1.60038	0.00779049	0.000251801	0.00019222	41	0.0000000E+000	6.99446e-05	2	1.11998e-07	0.000000000000000E+000	112480	0.000000000000000E+000	0.000000000000000E+000	6.99446e-05	6.99446e-05	0.0000000E+000	1	1.24677e-05
2	1	0	1	0	0	1	619.006	1.5999	1.59973	0.00774498	0.000252575	0.000192995	41	0.0000000E+000	7.01598e-05	2	1.12342e-07	0.000000000000000E+000	87682.2	0.000000000000000E+000	0.000000000000000E+000	7.01598e-05	7.01598e-05	0.0000000E+000	1	1.23899e-05
2	1	0	1	0	0	1	619.106	1.5999	1.60028	0.00769798	0.000253345	0.000193764	41	0.0000000E+000	7.03736e-05	2	1.12684e-07	0.000000000000000E+000	108718	0.000000000000000E+000	0.000000000000000E+000	7.03736e-05	7.03736e-05	0.0000000E+000	1	1.2319e-05
2	1	0	1	0	0	1	619.206	1.5999	1.59998	0.00766134	0.000254111	0.000194531	41	0.0000000E+000	7.05864e-05	2	1.13025e-07	0.000000000000000E+000	96541.6	0.000000000000000E+000	0.000000000000000E+000	7.05864e-05	7.05864e-05	0.0000000E+000	1	1.2258e-05
2	1	0	1	0	0	1	619.306	1.5999	1.60096	0.00762261	0.000254873	0.000195293	41	0.0000000E+000	7.07981e-05	2	1.13364e-07	0.000000000000000E+000	154437	0.000000000000000E+000	0.000000000000000E+000	7.07981e-05	7.07981e-05	0.0000000E+000	1	1.22035e-05
2	1	0	1	0	0	1	619.406	1.5999	1.59999	0.0075813	0.000255631	0.000196051	41	0.0000000E+000	7.10087e-05	2	1.13701e-07	0.000000000000000E+000	97397.1	0.000000000000000E+000	0.000000000000000E+000	7.10087e-05	7.10087e-05	0.0000000E+000	1	1.213e-05
2	1	0	1	0	0	1	619.506	1.5999	1.59979	0.00753334	0.000256385	0.000196804	41	0.0000000E+000	7.1218e-05	2	1.14035e-07	0.000000000000000E+000	90816.3	0.000000000000000E+000	0.000000000000000E+000	7.1218e-05	7.1218e-05	0.0000000E+000	1	1.20518e-05
2	1	0	1	0	0	1	619.581	1.5999	1.60062	0.00749756	0.000256944	0.000197364	41	0.0000000E+000	7.13734e-05	2	1.14284e-07	0.000000000000000E+000	128596	0.000000000000000E+000	0.000000000000000E+000	7.13734e-05	7.13734e-05	0.0000000E+000	1	1.20007e-05
2	0	1	0	1	0	2	620.017	0.199958	0.19477	-0.250089	-0.000108989	8.83746e-05	41	0.0000000E+000	-3.02747e-05	3	1.14284e-07	-5.8966e-09	128596	0.000000000000000E+000	3.02747e-05	0.000000000000000E+000	3.02747e-05	0.0000000E+000	1	-4.87099e-05
2	0	1	0	0	0	2	620.117	0.199958	0.202472	0.0138782	-0.000107601	8.97624e-05	41	0.0000000E+000	-2.98892e-05	3	1.14362e-07	-5.8966e-09	184.504	0.000000000000000E+000	2.98892e-05	0.000000000000000E+000	2.98892e-05	0.0000000E+000	1	2.80995e-06
2	0	0	0	0	0	2	620.217	0.199958	0.200882	-0.0239808	-0.000109999	8.73643e-05	41	0.0000000E+000	-3.05553e-05	3	1.14362e-07	-6.03041e-09	184.504	18222.5	3.05553e-05	0.000000000000000E+000	3.05553e-05	0.0000000E+000	1	-4.81732e-06
2	0	0	0	0	0	2	620.317	0.199958	0.201211	-0.0233924	-0.000112338	8.50251e-05	41	0.0000000E+000	-3.12051e-05	3	1.14362e-07	-6.16116e-09	184.504	17656.1	3.12051e-05	0.000000000000000E+000	3.12051e-05	0.0000000E+000	1	-4.7068e-06
2	0	0	0	0	0	2	620.417	0.199958	0.19982	-0.0195417	-0.000114293	8.30709e-05	41	0.0000000E+000	-3.1748e-05	3	1.14362e-07	-6.26963e-09	184.504	22904.5	3.1748e-05	0.000000000000000E+000	3.1748e-05	0.0000000E+000	1	-3.90482e-06
2	0	0	0	0	0	2	620.517	0.199958	0.199893	-0.0171502	-0.000116008	8.13559e-05	41	0.0000000E+000	-3.22243e-05	3	1.14362e-07	-6.36485e-09	184.504	22914.8	3.22243e-05	0.000000000000000E+000	3.22243e-05	0.0000000E+000	1	-3.42821e-06
2	0	0	0	0	0	2	620.617	0.199958	0.200115	-0.0154687	-0.000117555	7.9809e-05	41	0.0000000E+000	-3.2654e-05	3	1.14362e-07	-6.45084e-09	184.504	22254.2	3.2654e-05	0.000000000000000E+000	3.2654e-05	0.0000000E+000	1	-3.09552e-06
2	0	0	0	0	0	2	620.717	0.199958	0.199301	-0.0141702	-0.000118972	7.8392e-05	41	0.0000000E+000	-3.30477e-05	3	1.14362e-07	-6.52929e-09	184.504	26563.6	3.30477e-05	0.000000000000000E+000	3.30477e-05	0.0000000E+000	1	-2.82413e-06
2	0	0	0	0	0	2	620.817	0.199958	0.200447	-0.0130625	-0.000120278	7.70857e-05	41	0.0000000E+000	-3.34105e-05	3	1.14362e-07	-6.60202e-09	184.504	21431	3.34105e-05	0.000000000000000E+000	3.34105e-05	0.0000000E+000	1	-2.61834e-06
2	0	0	0	0	0	2	620.917	0.199958	0.200267	-0.012153	-0.000121493	7.58704e-05	41	0.0000000E+000	-3.37481e-05	3	1.14362e-07	-6.66963e-09	184.504	22352	3.37481e-05	0.000000000000000E+000	3.37481e-05	0.0000000E+000	1	-2.43384e-06
2	0	0	0	0	0	2	621.017	0.199958	0.19971	-0.0113651	-0.00012263	7.47339e-05	41	0.0000000E+000	-3.40638e-05	3	1.14362e-07	-6.73267e-09	184.504	25106	3.40638e-05	0.000000000000000E+000	3.40638e-05	0.0000000E+000	1	-2.26972e-06
2	0	0	0	0	0	2	621.117	0.199958	0.200225	-0.0106473	-0.000123694	7.36692e-05	41	0.0000000E+000	-3.43595e-05	3	1.14362e-07	-6.79189e-09	184.504	22927.6	3.43595e-05	0.000000000000000E+000	3.43595e-05	0.0000000E+000	1	-2.13186e-06
2	0	0	0	0	0	2	621.217	0.199958	0.200604	-0.0100282	-0.000124697	7.26664e-05	41	0.0000000E+000	-3.46381e-05	3	1.14362e-07	-6.84777e-09	184.504	21613.1	3.46381e-05	0.000000000000000E+000	3.46381e-05	0.0000000E+000	1	-2.01169e-06
2	0	0	0	0	0	2	621.317	0.199958	0.199671	-0.00945992	-0.000125643	7.17204e-05	41	0.0000000E+000	-3.49009e-05	3	1.14362e-07	-6.90024e-09	184.504	25916.4	3.49009e-05	0.000000000000000E+000	3.49009e-05	0.0000000E+000	1	-1.88887e-06
2	0	0	0	0	0	2	621.417	0.199958	0.200745	-0.00894953	-0.000126538	7.08254e-05	41	0.0000000E+000	-3.51495e-05	3	1.14362e-07	-6.95015e-09	184.504	21409.9	3.51495e-05	0.000000000000000E+000	3.51495e-05	0.0000000E+000	1	-1.79657e-06
2	0	0	0	0	0	2	621.517	0.199958	0.20013	-0.00849966	-0.000127388	6.99755e-05	41	0.0000000E+000	-3.53856e-05	3	1.14362e-07	-6.9974e-09	184.504	24025.3	3.53856e-05	0.000000000000000E+000	3.53856e-05	0.0000000E+000	1	-1.70104e-06
2	0	0	0	0	0	2	621.617	0.199958	0.200011	-0.00806528	-0.000128195	6.91689e-05	41	0.0000000E+000	-3.56096e-05	3	1.14362e-07	-7.04221e-09	184.504	24722	3.56096e-05	0.000000000000000E+000	3.56096e-05	0.0000000E+000	1	-1.61315e-06
2	0	0	0	0	0	2	621.717	0.199958	0.20042	-0.00766368	-0.000128961	6.84026e-05	41	0.0000000E+000	-3.58225e-05	3	1.14362e-07	-7.08487e-09	184.504	23069.1	3.58225e-05	0.000000000000000E+000	3.58225e-05	0.0000000E+000	1	-1.53596e-06
2	0	0	0	0	0	2	621.817	0.199958	0.201203	-0.00732922	-0.000129694	6.76697e-05	41	0.0000000E+000	-3.60261e-05	3	1.14362e-07	-7.12584e-09	184.504	20374.8	3.60261e-05	0.000000000000000E+000	3.60261e-05	0.0000000E+000	1	-1.47466e-06
2	0	0	0	0	0	2	621.917	0.199958	0.199859	-0.0069992	-0.000130394	6.69697e-05	41	0.0000000E+000	-3.62205e-05	3	1.14362e-07	-7.16469e-09	184.504	25896.6	3.62205e-05	0.000000000000000E+000	3.62205e-05	0.0000000E+000	1	-1.39885e-06
2	0	0	0	0	0	2	622.017	0.199958	0.200153	-0.00667464	-0.000131061	6.63023e-05	41	0.0000000E+000	-3.64059e-05	3	1.14362e-07	-7.2018e-09	184.504	24605.4	3.64059e-05	0.000000000000000E+000	3.64059e-05	0.0000000E+000	1	-1.33595e-06
2	0	0	0	0	0	2	622.117	0.199958	0.201123	-0.00640416	-0.000131702	6.56619e-05	41	0.0000000E+000	-3.65838e-05	3	1.14362e-07	-7.23758e-09	184.504	20948.1	3.65838e-05	0.000000000000000E+000	3.65838e-05	0.0000000E+000	1	-1.28802e-06
2	0	0	0	0	0	2	622.217	0.199958	0.200111	-0.00613553	-0.000132315	6.50483e-05	41	0.0000000E+000	-3.67542e-05	3	1.14362e-07	-7.27169e-09	184.504	25033.9	3.67542e-05	0.000000000000000E+000	3.67542e-05	0.0000000E+000	1	-1.22779e-06
2	0	0	0	0	0	2	622.317	0.199958	0.200363	-0.00585921	-0.000132901	6.44624e-05	41	0.0000000E+000	-3.6917e-05	3	1.14362e-07	-7.3043e-09	184.504	24010	3.6917e-05	0.000000000000000E+000	3.6917e-05	0.0000000E+000	1	-1.17397e-06
2	0	0	0	0	0	2	622.417	0.199958	0.199977	-0.00564959	-0.000133466	6.38974e-05	41	0.0000000E+000	-3.70739e-05	3	1.14362e-07	-7.33568e-09	184.504	25897.6	3.70739e-05	0.000000000000000E+000	3.70739e-05	0.0000000E+000	1	-1.12979e-06
2	0	0	0	0	0	2	622.517	0.199958	0.200065	-0.00544298	-0.00013401	6.33531e-05	41	0.0000000E+000	-3.72251e-05	3	1.14362e-07	-7.36593e-09	184.504	25570.7	3.72251e-05	0.000000000000000E+000	3.72251e-05	0.0000000E+000	1	-1.08895e-06
2	0	0	0	0	0	2	622.617	0.199958	0.200588	-0.00520542	-0.000134531	6.28326e-05	41	0.0000000E+000	-3.73697e-05	3	1.14362e-07	-7.39493e-09	184.504	23359.9	3.73697e-05	0.000000000000000E+000	3.73697e-05	0.0000000E+000	1	-1.04415e-06
2	0	0	0	0	0	2	622.717	0.199958	0.20034	-0.00500437	-0.000135031	6.23321e-05	41	0.0000000E+000	-3.75087e-05	3	1.14362e-07	-7.42278e-09	184.504	24491.2	3.75087e-05	0.000000000000000E+000	3.75087e-05	0.0000000E+000	1	-1.00258e-06
2	0	0	0	0	0	2	622.817	0.199958	0.200542	-0.00484088	-0.000135515	6.18481e-05	41	0.0000000E+000	-3.76432e-05	3	1.14362e-07	-7.44975e-09	184.504	23716.1	3.76432e-05	0.000000000000000E+000	3.76432e-05	0.0000000E+000	1	-9.70802e-07
2	0	0	0	0	0	2	622.917	0.199958	0.200141	-0.00465702	-0.000135981	6.13824e-05	41	0.0000000E+000	-3.77725e-05	3	1.14362e-07	-7.47564e-09	184.504	25573.8	3.77725e-05	0.000000000000000E+000	3.77725e-05	0.0000000E+000	1	-9.32062e-07
2	0	0	0	0	0	2	623.017	0.199958	0.19992	-0.00448188	-0.000136429	6.09342e-05	41	0.0000000E+000	-3.7897e-05	3	1.14362e-07	-7.50053e-09	184.504	26761.2	3.7897e-05	0.000000000000000E+000	3.7897e-05	0.0000000E+000	1	-8.96017e-07
2	0	0	0	0	0	2	623.117	0.199958	0.200023	-0.00432231	-0.000136862	6.05019e-05	41	0.0000000E+000	-3.80171e-05	3	1.14362e-07	-7.52454e-09	184.504	26318	3.80171e-05	0.000000000000000E+000	3.80171e-05	0.0000000E+000	1	-8.6456e-07
2	0	0	0	0	0	2	623.217	0.199958	0.199943	-0.00416002	-0.000137278	6.00859e-05	41	0.0000000E+000	-3.81327e-05	3	1.14362e-07	-7.54765e-09	184.504	26806.6	3.81327e-05	0.000000000000000E+000	3.81327e-05	0.0000000E+000	1	-8.31766e-07
2	0	0	0	0	0	2	623.317	0.199958	0.200015	-0.00403586	-0.000137681	5.96823e-05	41	0.0000000E+000	-3.82448e-05	3	1.14362e-07	-7.57007e-09	184.504	26512.6	3.82448e-05	0.000000000000000E+000	3.82448e-05	0.0000000E+000	1	-8.07233e-07
2	0	0	0	0	0	2	623.417	0.199958	0.200562	-0.00387125	-0.000138068	5.92952e-05	41	0.0000000E+000	-3.83523e-05	3	1.14362e-07	-7.59164e-09	184.504	24078.6	3.83523e-05	0.000000000000000E+000	3.83523e-05	0.0000000E+000	1	-7.76424e-07
2	0	0	0	0	0	2	623.517	0.199958	0.200271	-0.00373931	-0.000138442	5.89213e-05	41	0.0000000E+000	-3.84562e-05	3	1.14362e-07	-7.61244e-09	184.504	25417.4	3.84562e-05	0.000000000000000E+000	3.84562e-05	0.0000000E+000	1	-7.48876e-07
2	0	0	0	0	0	2	623.617	0.199958	0.200115	-0.00363754	-0.000138806	5.85575e-05	41	0.0000000E+000	-3.85572e-05	3	1.14362e-07	-7.63266e-09	184.504	26230.3	3.85572e-05	0.000000000000000E+000	3.85572e-05	0.0000000E+000	1	-7.27925e-07
2	0	0	0	0	0	2	623.717	0.199958	0.20008	-0.00348889	-0.000139155	5.82087e-05	41	0.0000000E+000	-3.86541e-05	3	1.14362e-07	-7.65205e-09	184.504	26465.9	3.86541e-05	0.000000000000000E+000	3.86541e-05	0.0000000E+000	1	-6.98057e-07
2	0	0	0	0	0	2	623.817	0.199958	0.199935	-0.00337417	-0.000139492	5.78712e-05	41	0.0000000E+000	-3.87479e-05	3	1.14362e-07	-7.67079e-09	184.504	27275.1	3.87479e-05	0.000000000000000E+000	3.87479e-05	0.0000000E+000	1	-6.74615e-07
2	0	0	0	0	0	2	623.917	0.199958	0.200733	-0.00326577	-0.000139819	5.75447e-05	41	0.0000000E+000	-3.88386e-05	3	1.14362e-07	-7.689e-09	184.504	23678	3.88386e-05	0.000000000000000E+000	3.88386e-05	0.0000000E+000	1	-6.55549e-07
2	0	0	0	0	0	2	624.017	0.199958	0.200581	-0.00315749	-0.000140135	5.72289e-05	41	0.0000000E+000	-3.89263e-05	3	1.14362e-07	-7.70659e-09	184.504	24355	3.89263e-05	0.000000000000000E+000	3.89263e-05	0.0000000E+000	1	-6.33332e-07
2	0	0	0	0	0	2	624.117	0.199958	0.199958	-0.00303716	-0.000140438	5.69252e-05	41	0.0000000E+000	-3.90107e-05	3	1.14362e-07	-7.72346e-09	184.504	27336.9	3.90107e-05	0.000000000000000E+000	3.90107e-05	0.0000000E+000	1	-6.07304e-07
2	0	0	0	0	0	2	624.217	0.199958	0.200489	-0.00294589	-0.000140733	5.66306e-05	41	0.0000000E+000	-3.90925e-05	3	1.14362e-07	-7.73987e-09	184.504	24850.1	3.90925e-05	0.000000000000000E+000	3.90925e-05	0.0000000E+000	1	-5.90617e-07
2	0	0	0	0	0	2	624.317	0.199958	0.199725	-0.00286884	-0.00014102	5.63437e-05	41	0.0000000E+000	-3.91722e-05	3	1.14362e-07	-7.75578e-09	184.504	28740	3.91722e-05	0.000000000000000E+000	3.91722e-05	0.0000000E+000	1	-5.72979e-07
2	0	0	0	0	0	2	624.417	0.199958	0.200455	-0.00276098	-0.000141296	5.60676e-05	41	0.0000000E+000	-3.92489e-05	3	1.14362e-07	-7.77116e-09	184.504	25099.5	3.92489e-05	0.000000000000000E+000	3.92489e-05	0.0000000E+000	1	-5.53452e-07
2	0	0	0	0	0	2	624.517	0.199958	0.199721	-0.00268063	-0.000141564	5.57996e-05	41	0.0000000E+000	-3.93233e-05	3	1.14362e-07	-7.78603e-09	184.504	28872	3.93233e-05	0.000000000000000E+000	3.93233e-05	0.0000000E+000	1	-5.35378e-07
2	0	0	0	0	0	2	624.617	0.199958	0.200157	-0.00259136	-0.000141823	5.55404e-05	41	0.0000000E+000	-3.93953e-05	3	1.14362e-07	-7.80044e-09	184.504	26585.8	3.93953e-05	0.000000000000000E+000	3.93953e-05	0.0000000E+000	1	-5.18678e-07
2	0	0	0	0	0	2	624.717	0.199958	0.199878	-0.00252287	-0.000142075	5.52881e-05	41	0.0000000E+000	-3.94654e-05	3	1.14362e-07	-7.81444e-09	184.504	28086.7	3.94654e-05	0.000000000000000E+000	3.94654e-05	0.0000000E+000	1	-5.04265e-07
2	0	0	0	0	0	2	624.817	0.199958	0.199721	-0.00243238	-0.000142319	5.50449e-05	41	0.0000000E+000	-3.9533e-05	3	1.14362e-07	-7.82794e-09	184.504	29024.4	3.9533e-05	0.000000000000000E+000	3.9533e-05	0.0000000E+000	1	-4.85797e-07
2	0	0	0	0	0	2	624.917	0.199958	0.20029	-0.00237455	-0.000142556	5.48074e-05	41	0.0000000E+000	-3.95989e-05	3	1.14362e-07	-7.84115e-09	184.504	26074.6	3.95989e-05	0.000000000000000E+000	3.95989e-05	0.0000000E+000	1	-4.756e-07
2	0	0	0	0	0	2	625.017	0.199958	0.200149	-0.00232338	-0.000142788	5.45751e-05	41	0.0000000E+000	-3.96635e-05	3	1.14362e-07	-7.85407e-09	184.504	26803	3.96635e-05	0.000000000000000E+000	3.96635e-05	0.0000000E+000	1	-4.65022e-07
2	0	0	0	0	0	2	625.117	0.199958	0.199484	-0.00225255	-0.000143014	5.43499e-05	41	0.0000000E+000	-3.9726e-05	3	1.14362e-07	-7.86655e-09	184.504	30630.2	3.9726e-05	0.000000000000000E+000	3.9726e-05	0.0000000E+000	1	-4.49347e-07
2	0	0	0	0	0	2	625.217	0.199958	0.200668	-0.00216755	-0.00014323	5.41331e-05	41	0.0000000E+000	-3.97862e-05	3	1.14362e-07	-7.87863e-09	184.504	24517.1	3.97862e-05	0.000000000000000E+000	3.97862e-05	0.0000000E+000	1	-4.34959e-07
2	0	0	0	0	0	2	625.317	0.199958	0.200088	-0.00212063	-0.000143443	5.3921e-05	41	0.0000000E+000	-3.98451e-05	3	1.14362e-07	-7.89042e-09	184.504	27234.1	3.98451e-05	0.000000000000000E+000	3.98451e-05	0.0000000E+000	1	-4.24313e-07
2	0	0	0	0	0	2	625.417	0.199958	0.199946	-0.00209605	-0.000143652	5.37114e-05	41	0.0000000E+000	-3.99034e-05	3	1.14362e-07	-7.90206e-09	184.504	28018.3	3.99034e-05	0.000000000000000E+000	3.99034e-05	0.0000000E+000	1	-4.19098e-07
2	0	0	0	0	0	2	625.517	0.199958	0.200668	-0.00202004	-0.000143854	5.35094e-05	41	0.0000000E+000	-3.99595e-05	3	1.14362e-07	-7.91332e-09	184.504	24622.8	3.99595e-05	0.000000000000000E+000	3.99595e-05	0.0000000E+000	1	-4.05359e-07
2	0	0	0	0	0	2	625.617	0.199958	0.200481	-0.00196638	-0.000144051	5.33128e-05	41	0.0000000E+000	-4.00141e-05	3	1.14362e-07	-7.92427e-09	184.504	25464.3	4.00141e-05	0.000000000000000E+000	4.00141e-05	0.0000000E+000	1	-3.94222e-07
2	0	0	0	0	0	2	625.717	0.199958	0.200328	-0.0019225	-0.000144243	5.31205e-05	41	0.0000000E+000	-4.00675e-05	3	1.14362e-07	-7.93497e-09	184.504	26198.9	4.00675e-05	0.000000000000000E+000	4.00675e-05	0.0000000E+000	1	-3.85131e-07
2	0	0	0	0	0	2	625.817	0.199958	0.199996	-0.00186843	-0.00014443	5.29337e-05	41	0.0000000E+000	-4.01194e-05	3	1.14362e-07	-7.94535e-09	184.504	27900.8	4.01194e-05	0.000000000000000E+000	4.01194e-05	0.0000000E+000	1	-3.7368e-07
2	0	0	0	0	0	2	625.917	0.199958	0.200584	-0.00180665	-0.000144611	5.2753e-05	41	0.0000000E+000	-4.01696e-05	3	1.14362e-07	-7.95541e-09	184.504	25108.8	4.01696e-05	0.000000000000000E+000	4.01696e-05	0.0000000E+000	1	-3.62386e-07
2	0	0	0	0	0	2	626.017	0.199958	0.199629	-0.0018012	-0.000144791	5.25729e-05	41	0.0000000E+000	-4.02196e-05	3	1.14362e-07	-7.9654e-09	184.504	30080.7	4.02196e-05	0.000000000000000E+000	4.02196e-05	0.0000000E+000	1	-3.59573e-07
2	0	0	0	0	0	2	626.117	0.199958	0.200722	-0.0017575	-0.000144966	5.23972e-05	41	0.0000000E+000	-4.02684e-05	3	1.14362e-07	-7.9752e-09	184.504	24588.4	4.02684e-05	0.000000000000000E+000	4.02684e-05	0.0000000E+000	1	-3.5277e-07
2	0	0	0	0	0	2	626.217	0.199958	0.200065	-0.00171975	-0.000145138	5.22252e-05	41	0.0000000E+000	-4.03162e-05	3	1.14362e-07	-7.98476e-09	184.504	27672.3	4.03162e-05	0.000000000000000E+000	4.03162e-05	0.0000000E+000	1	-3.44061e-07
2	0	0	0	0	0	2	626.317	0.199958	0.200283	-0.00167606	-0.000145306	5.20576e-05	41	0.0000000E+000	-4.03628e-05	3	1.14362e-07	-7.99408e-09	184.504	26609.6	4.03628e-05	0.000000000000000E+000	4.03628e-05	0.0000000E+000	1	-3.35686e-07
2	0	0	0	0	0	2	626.417	0.199958	0.199752	-0.00164579	-0.000145471	5.1893e-05	41	0.0000000E+000	-4.04085e-05	3	1.14362e-07	-8.00322e-09	184.504	29479.1	4.04085e-05	0.000000000000000E+000	4.04085e-05	0.0000000E+000	1	-3.2875e-07
2	0	0	0	0	0	2	626.517	0.199958	0.199293	-0.00159951	-0.000145631	5.1733e-05	41	0.0000000E+000	-4.04529e-05	3	1.14362e-07	-8.01207e-09	184.504	32502.2	4.04529e-05	0.000000000000000E+000	4.04529e-05	0.0000000E+000	1	-3.18771e-07
2	0	0	0	0	0	2	626.617	0.199958	0.200115	-0.00157817	-0.000145788	5.15752e-05	41	0.0000000E+000	-4.04968e-05	3	1.14362e-07	-8.02084e-09	184.504	27536.7	4.04968e-05	0.000000000000000E+000	4.04968e-05	0.0000000E+000	1	-3.15814e-07
2	0	0	0	0	0	2	626.717	0.199958	0.200997	-0.00157027	-0.000145945	5.14182e-05	41	0.0000000E+000	-4.05404e-05	3	1.14362e-07	-8.02961e-09	184.504	23659.5	4.05404e-05	0.000000000000000E+000	4.05404e-05	0.0000000E+000	1	-3.15619e-07
2	0	0	0	0	0	2	626.817	0.199958	0.199744	-0.00151253	-0.000146097	5.12669e-05	41	0.0000000E+000	-4.05824e-05	3	1.14362e-07	-8.038e-09	184.504	29650.2	4.05824e-05	0.000000000000000E+000	4.05824e-05	0.0000000E+000	1	-3.02119e-07
2	0	0	0	0	0	2	626.917	0.199958	0.200684	-0.001469	-0.000146243	5.112e-05	41	0.0000000E+000	-4.06232e-05	3	1.14362e-07	-8.04619e-09	184.504	24963.2	4.06232e-05	0.000000000000000E+000	4.06232e-05	0.0000000E+000	1	-2.94805e-07
2	0	0	0	0	0	2	627.017	0.199958	0.200065	-0.00146348	-0.00014639	5.09737e-05	41	0.0000000E+000	-4.06638e-05	3	1.14362e-07	-8.05432e-09	184.504	27908.6	4.06638e-05	0.000000000000000E+000	4.06638e-05	0.0000000E+000	1	-2.92791e-07
2	0	0	0	0	0	2	627.117	0.199958	0.200516	-0.00143066	-0.000146533	5.08306e-05	41	0.0000000E+000	-4.07036e-05	3	1.14362e-07	-8.06229e-09	184.504	25743.8	4.07036e-05	0.000000000000000E+000	4.07036e-05	0.0000000E+000	1	-2.86869e-07
2	0	0	0	0	0	2	627.217	0.199958	0.2006	-0.00140686	-0.000146674	5.06899e-05	41	0.0000000E+000	-4.07427e-05	3	1.14362e-07	-8.07013e-09	184.504	25396.8	4.07427e-05	0.000000000000000E+000	4.07427e-05	0.0000000E+000	1	-2.82215e-07
2	0	0	0	0	0	2	627.317	0.199958	0.20016	-0.00136536	-0.00014681	5.05534e-05	41	0.0000000E+000	-4.07806e-05	3	1.14362e-07	-8.07772e-09	184.504	27492.1	4.07806e-05	0.000000000000000E+000	4.07806e-05	0.0000000E+000	1	-2.73292e-07
2	0	0	0	0	0	2	627.417	0.199958	0.199897	-0.00135779	-0.000146946	5.04176e-05	41	0.0000000E+000	-4.08183e-05	3	1.14362e-07	-8.08526e-09	184.504	28932.1	4.08183e-05	0.000000000000000E+000	4.08183e-05	0.0000000E+000	1	-2.71419e-07
2	0	0	0	0	0	2	627.517	0.199958	0.200714	-0.00134348	-0.00014708	5.02833e-05	41	0.0000000E+000	-4.08556e-05	3	1.14362e-07	-8.09275e-09	184.504	24975.6	4.08556e-05	0.000000000000000E+000	4.08556e-05	0.0000000E+000	1	-2.69656e-07
2	0	0	0	0	0	2	627.617	0.199958	0.200661	-0.00132944	-0.000147213	5.01503e-05	41	0.0000000E+000	-4.08926e-05	3	1.14362e-07	-8.10016e-09	184.504	25224.9	4.08926e-05	0.000000000000000E+000	4.08926e-05	0.0000000E+000	1	-2.66767e-07
2	0	0	0	0	0	2	627.717	0.199958	0.200065	-0.00128785	-0.000147342	5.00216e-05	41	0.0000000E+000	-4.09283e-05	3	1.14362e-07	-8.10732e-09	184.504	28088.4	4.09283e-05	0.000000000000000E+000	4.09283e-05	0.0000000E+000	1	-2.57654e-07
2	0	0	0	0	0	2	627.817	0.199958	0.200596	-0.0012688	-0.000147469	4.98947e-05	41	0.0000000E+000	-4.09636e-05	3	1.14362e-07	-8.11439e-09	184.504	25550	4.09636e-05	0.000000000000000E+000	4.09636e-05	0.0000000E+000	1	-2.54515e-07
2	0	0	0	0	0	2	627.917	0.199958	0.199954	-0.00123772	-0.000147593	4.97709e-05	41	0.0000000E+000	-4.0998e-05	3	1.14362e-07	-8.12127e-09	184.504	28737.1	4.0998e-05	0.000000000000000E+000	4.0998e-05	0.0000000E+000	1	-2.47488e-07
2	0	0	0	0	0	2	628.017	0.199958	0.200157	-0.00126557	-0.000147719	4.96443e-05	41	0.0000000E+000	-4.10331e-05	3	1.14362e-07	-8.1283e-09	184.504	27680.3	4.10331e-05	0.000000000000000E+000	4.10331e-05	0.0000000E+000	1	-2.53313e-07
2	0	0	0	0	0	2	628.117	0.199958	0.199996	-0.00122159	-0.000147841	4.95222e-05	41	0.0000000E+000	-4.1067e-05	3	1.14362e-07	-8.13509e-09	184.504	28553.6	4.1067e-05	0.000000000000000E+000	4.1067e-05	0.0000000E+000	1	-2.44314e-07
2	0	0	0	0	0	2	628.217	0.199958	0.200176	-0.00119692	-0.000147961	4.94025e-05	41	0.0000000E+000	-4.11003e-05	3	1.14362e-07	-8.14174e-09	184.504	27627.2	4.11003e-05	0.000000000000000E+000	4.11003e-05	0.0000000E+000	1	-2.39595e-07
2	0	0	0	0	0	2	628.317	0.199958	0.200313	-0.00117945	-0.000148079	4.92845e-05	41	0.0000000E+000	-4.11331e-05	3	1.14362e-07	-8.14831e-09	184.504	26963.1	4.11331e-05	0.000000000000000E+000	4.11331e-05	0.0000000E+000	1	-2.3626e-07
2	0	0	0	0	0	2	628.417	0.199958	0.200348	-0.00113076	-0.000148192	4.91715e-05	41	0.0000000E+000	-4.11645e-05	3	1.14362e-07	-8.1546e-09	184.504	26817.2	4.11645e-05	0.000000000000000E+000	4.11645e-05	0.0000000E+000	1	-2.26545e-07
2	0	0	0	0	0	2	628.517	0.199958	0.20029	-0.00114393	-0.000148306	4.90571e-05	41	0.0000000E+000	-4.11962e-05	3	1.14362e-07	-8.16096e-09	184.504	27116.3	4.11962e-05	0.000000000000000E+000	4.11962e-05	0.0000000E+000	1	-2.29119e-07
2	0	0	0	0	0	2	628.617	0.199958	0.200218	-0.00114931	-0.000148421	4.89421e-05	41	0.0000000E+000	-4.12282e-05	3	1.14362e-07	-8.16736e-09	184.504	27498.6	4.12282e-05	0.000000000000000E+000	4.12282e-05	0.0000000E+000	1	-2.30112e-07
2	0	0	0	0	0	2	628.717	0.199958	0.200817	-0.00114118	-0.000148536	4.8828e-05	41	0.0000000E+000	-4.12599e-05	3	1.14362e-07	-8.17372e-09	184.504	24790.2	4.12599e-05	0.000000000000000E+000	4.12599e-05	0.0000000E+000	1	-2.2917e-07
2	0	0	0	0	0	2	628.817	0.199958	0.200802	-0.00110858	-0.000148646	4.87172e-05	41	0.0000000E+000	-4.12907e-05	3	1.14362e-07	-8.17991e-09	184.504	24871.4	4.12907e-05	0.000000000000000E+000	4.12907e-05	0.0000000E+000	1	-2.22606e-07
2	0	0	0	0	0	2	628.917	0.199958	0.199564	-0.00110238	-0.000148757	4.86069e-05	41	0.0000000E+000	-4.13213e-05	3	1.14362e-07	-8.18602e-09	184.504	31315.4	4.13213e-05	0.000000000000000E+000	4.13213e-05	0.0000000E+000	1	-2.19995e-07
2	0	0	0	0	0	2	629.017	0.199958	0.199729	-0.00109785	-0.000148866	4.84971e-05	41	0.0000000E+000	-4.13518e-05	3	1.14362e-07	-8.19211e-09	184.504	30300.1	4.13518e-05	0.000000000000000E+000	4.13518e-05	0.0000000E+000	1	-2.19273e-07
2	0	0	0	0	0	2	629.117	0.199958	0.200749	-0.00105055	-0.000148971	4.83921e-05	41	0.0000000E+000	-4.1381e-05	3	1.14362e-07	-8.19797e-09	184.504	25148.3	4.1381e-05	0.000000000000000E+000	4.1381e-05	0.0000000E+000	1	-2.10897e-07
2	0	0	0	0	0	2	629.217	0.199958	0.200455	-0.0010589	-0.000149077	4.82862e-05	41	0.0000000E+000	-4.14104e-05	3	1.14362e-07	-8.20386e-09	184.504	26468.3	4.14104e-05	0.000000000000000E+000	4.14104e-05	0.0000000E+000	1	-2.12261e-07
2	0	0	0	0	0	2	629.317	0.199958	0.200099	-0.00104957	-0.000149182	4.81812e-05	41	0.0000000E+000	-4.14395e-05	3	1.14362e-07	-8.2097e-09	184.504	28252.6	4.14395e-05	0.000000000000000E+000	4.14395e-05	0.0000000E+000	1	-2.10017e-07
2	0	0	0	0	0	2	629.417	0.199958	0.199889	-0.00103023	-0.000149285	4.80782e-05	41	0.0000000E+000	-4.14681e-05	3	1.14362e-07	-8.21542e-09	184.504	29432.2	4.14681e-05	0.000000000000000E+000	4.14681e-05	0.0000000E+000	1	-2.05932e-07
2	0	0	0	0	0	2	629.517	0.199958	0.199801	-0.00102898	-0.000149388	4.79753e-05	41	0.0000000E+000	-4.14967e-05	3	1.14362e-07	-8.22113e-09	184.504	29966.7	4.14967e-05	0.000000000000000E+000	4.14967e-05	0.0000000E+000	1	-2.05592e-07
2	0	0	0	0	0	2	629.581	0.199958	0.200267	-0.00100174	-0.000149453	4.7911e-05	41	0.0000000E+000	-4.15146e-05	3	1.14362e-07	-8.2247e-09	184.504	27437.8	4.15146e-05	0.000000000000000E+000	4.15146e-05	58.1654	1	-2.00617e-07