File: zilien_version_2/2022-09-19 11_27_59 test-1/2022-09-19 11_27_59 test-21_01_01_CV_C01.mpt
EC-Lab ASCII FILE
Nb header lines : 63

Cyclic Voltammetry

Run on channel : 1 (SN 15565)
User :
Electrode connection : standard
Potential control : Ewe
Ewe ctrl range : min = -10,00 V, max = 10,00 V
Ewe,I filtering : <None>
Safety Limits :
	Do not start on E overload
Channel : Grounded
Acquisition started on : 09/19/2022 11:28:15.894
Technique started on : 09/19/2022 11:28:15.894
Loaded Setting File :  NONE
Saved on :
	File : 2022-09-19 11_27_59 test-21_01_01_CV_C01.mpr
	Directory : C:\Users\Spectro\Spectro Inlets Dropbox\08 Development\Data\eclab-integration\2022-09-19 11_27_59 test-21\
	Host : 192.168.56.1
Device : SP-300 (SN 1920)
Address : USB
EC-Lab for windows v11.43 (software)
Internet server v11.40 (firmware)
Command interpretor v11.43 (firmware)
Electrode material :
Initial state :
Electrolyte :
Comments :
Cable : standard
Electrode surface area : 0,001 cm²
Characteristic mass : 0,001 g
Equivalent Weight : 0,000 g/eq.
Density : 0,000 g/cm3
Volume (V) : 0,001 cm³
Text export
   Mode : Standard
   Time format : Elapsed
Cycle Definition : Charge/Discharge alternance
Ei (V)              0,000
vs.                 Eoc
dE/dt               500,000
dE/dt unit          mV/s
E1 (V)              1,000
vs.                 Ref
Step percent        50
N                   10
E range min (V)     -10,000
E range max (V)     10,000
I Range             Auto
I Range min         Unset
I Range max         Unset
I Range init        Unset
Bandwidth           8
E2 (V)              -1,000
vs.                 Ref
nc cycles           0
Reverse Scan        1
Ef (V)              0,000
vs.                 Eoc

mode	ox/red	error	control changes	counter inc.	time/s	control/V	Ewe/V	<I>/mA	cycle number	(Q-Qo)/C	I Range	P/W
2	1	0	0	0	0,000000000000000E+000	4,4586502E-002	4,4815823E-002	9,416156448423862E-003	1,000000000000000E+000	0,0000000E+000	42	4,2199281E-007
2	1	0	1	0	5,359999864595011E-002	7,1372718E-002	7,1626514E-002	1,471461416585954E-002	1,000000000000000E+000	6,0681970E-007	41	1,0539566E-006
2	1	0	1	0	8,039999796892516E-002	8,4765814E-002	8,5030526E-002	1,735693647206060E-002	1,000000000000000E+000	1,0386208E-006	41	1,4758695E-006
2	1	0	1	0	1,069999972969526E-001	9,8058984E-002	9,8331548E-002	1,998168190427047E-002	1,000000000000000E+000	1,5373070E-006	41	1,9648296E-006
2	1	0	1	0	1,335999966249801E-001	1,1135215E-001	1,1157937E-001	2,261317352604245E-002	1,000000000000000E+000	2,1058686E-006	41	2,5231636E-006
2	1	0	1	0	1,603999959479552E-001	1,2474526E-001	1,2496734E-001	2,525440451475638E-002	1,000000000000000E+000	2,7493761E-006	41	3,1559759E-006
2	1	0	1	0	1,869999952759827E-001	1,3807175E-001	1,3836801E-001	2,789494047659297E-002	1,000000000000000E+000	3,4585241E-006	41	3,8597673E-006
2	1	0	1	0	2,135999946040101E-001	1,5136491E-001	1,5158200E-001	3,052411014214160E-002	1,000000000000000E+000	4,2375714E-006	41	4,6269056E-006
2	1	0	1	0	2,401999939320376E-001	1,6465805E-001	1,6493632E-001	3,315279204398403E-002	1,000000000000000E+000	5,0865297E-006	41	5,4680995E-006
2	1	0	1	0	2,669999932550127E-001	1,7805117E-001	1,7832582E-001	3,579560770109935E-002	1,000000000000000E+000	6,0124949E-006	41	6,3832808E-006
2	1	0	1	0	2,935999925830401E-001	1,9134434E-001	1,9158025E-001	3,842442401995277E-002	1,000000000000000E+000	7,0017436E-006	41	7,3613610E-006
2	1	0	1	0	3,201999919110676E-001	2,0467080E-001	2,0490664E-001	4,105699177598587E-002	1,000000000000000E+000	8,0610680E-006	41	8,4128505E-006
2	1	0	1	0	3,467999912390951E-001	2,1796399E-001	2,1826035E-001	4,369553146777147E-002	1,000000000000000E+000	9,1902839E-006	41	9,5370015E-006
2	1	0	1	0	3,735999905620702E-001	2,3135711E-001	2,3163362E-001	4,633594887612480E-002	1,000000000000000E+000	1,0398798E-005	41	1,0732963E-005
2	1	0	1	0	4,001999898900976E-001	2,4465026E-001	2,4493985E-001	4,896429540482752E-002	1,000000000000000E+000	1,1668395E-005	41	1,1993307E-005
2	1	0	1	0	4,267999892181251E-001	2,5795451E-001	2,5822446E-001	5,159190958365800E-002	1,000000000000000E+000	1,3007822E-005	41	1,3322293E-005
2	1	0	1	0	4,533999885461526E-001	2,7126986E-001	2,7152601E-001	5,422456857437885E-002	1,000000000000000E+000	1,4417312E-005	41	1,4723380E-005
2	1	0	1	0	4,801999878691277E-001	2,8466299E-001	2,8491679E-001	5,687180478125814E-002	1,000000000000000E+000	1,5908030E-005	41	1,6203732E-005
2	1	0	1	0	5,067999871971551E-001	2,9795617E-001	2,9820651E-001	5,949736326098609E-002	1,000000000000000E+000	1,7457734E-005	41	1,7742501E-005
2	1	0	1	0	5,333999865251826E-001	3,1124935E-001	3,1152058E-001	6,212764449592223E-002	1,000000000000000E+000	1,9077539E-005	41	1,9354040E-005
2	1	0	1	0	5,600999858506839E-001	3,2462060E-001	3,2492056E-001	6,477840816409430E-002	1,000000000000000E+000	2,0773692E-005	41	2,1047837E-005
2	1	0	1	0	5,867999851761851E-001	3,3796892E-001	3,3824825E-001	6,740845670089324E-002	1,000000000000000E+000	2,2540415E-005	41	2,2800792E-005
2	1	0	1	0	6,133999845042126E-001	3,5126209E-001	3,5152853E-001	7,004043595419118E-002	1,000000000000000E+000	2,4370525E-005	41	2,4621211E-005
2	1	0	1	0	6,399999838322401E-001	3,6455521E-001	3,6482722E-001	7,266645818308476E-002	1,000000000000000E+000	2,6270598E-005	41	2,6510701E-005
2	1	0	1	0	6,667999831552152E-001	3,7794834E-001	3,7821719E-001	7,531704946498707E-002	1,000000000000000E+000	2,8255627E-005	41	2,8486204E-005
2	1	0	1	0	6,933999824832426E-001	3,9127481E-001	3,9161807E-001	7,795746053646646E-002	1,000000000000000E+000	3,0296174E-005	41	3,0529551E-005
2	1	0	1	0	7,199999818112701E-001	4,0456805E-001	4,0484110E-001	8,058231128185667E-002	1,000000000000000E+000	3,2406777E-005	41	3,2623033E-005
2	1	0	1	0	7,465999811392976E-001	4,1786116E-001	4,1812286E-001	8,320248999516477E-002	1,000000000000000E+000	3,4587239E-005	41	3,4788864E-005
2	1	0	1	0	7,733999804622727E-001	4,3125427E-001	4,3150830E-001	8,585170866475300E-002	1,000000000000000E+000	3,6854664E-005	41	3,7045724E-005
2	1	0	1	0	7,999999797903001E-001	4,4454738E-001	4,4478786E-001	8,847597552909692E-002	1,000000000000000E+000	3,9175335E-005	41	3,9353039E-005
2	1	0	1	0	8,265999791183276E-001	4,5787391E-001	4,5812538E-001	9,111236006623005E-002	1,000000000000000E+000	4,1565963E-005	41	4,1740885E-005
2	1	0	1	0	8,531999784463551E-001	4,7116706E-001	4,7143474E-001	9,374273854385429E-002	1,000000000000000E+000	4,4026525E-005	41	4,4193584E-005
2	1	0	1	0	8,799999777693301E-001	4,8456019E-001	4,8482916E-001	9,639760691886001E-002	1,000000000000000E+000	4,6576497E-005	41	4,6736372E-005
2	1	0	1	0	9,065999770973576E-001	4,9785334E-001	4,9811152E-001	9,901962297444722E-002	1,000000000000000E+000	4,9177466E-005	41	4,9322814E-005
2	1	0	1	0	9,331999764253851E-001	5,1114655E-001	5,1141262E-001	1,016400842655764E-001	1,000000000000000E+000	5,1848274E-005	41	5,1980023E-005
2	1	0	1	0	9,597999757534126E-001	5,2447295E-001	5,2474064E-001	1,042812380939726E-001	1,000000000000000E+000	5,4589178E-005	41	5,4720604E-005
2	1	0	1	0	9,865999750763876E-001	5,3786606E-001	5,3811634E-001	1,069227116764528E-001	1,000000000000000E+000	5,7421385E-005	41	5,7536858E-005
2	1	0	1	0	1,013199974404415E+000	5,5115926E-001	5,5139714E-001	1,095491647429297E-001	1,000000000000000E+000	6,0302569E-005	41	6,0405098E-005
2	1	0	1	0	1,069799972974579E+000	5,7944477E-001	5,7972366E-001	1,152276402048304E-001	1,000000000000000E+000	6,6626264E-005	40	6,6800189E-005
2	1	0	1	0	1,096399972302606E+000	5,9277123E-001	5,9306169E-001	1,179028271057176E-001	1,000000000000000E+000	6,9728892E-005	40	6,9923648E-005
2	1	0	1	0	1,123199971625581E+000	6,0616434E-001	6,0643083E-001	1,205304254467291E-001	1,000000000000000E+000	7,2925708E-005	40	7,3093368E-005
2	1	0	1	0	1,149799970953609E+000	6,1945754E-001	6,1968130E-001	1,231516409122078E-001	1,000000000000000E+000	7,6168784E-005	40	7,6314769E-005
2	1	0	1	0	1,176399970281636E+000	6,3275063E-001	6,3295239E-001	1,257633846253154E-001	1,000000000000000E+000	7,9481644E-005	40	7,9602236E-005
2	1	0	1	0	1,203099969607138E+000	6,4609891E-001	6,4637929E-001	1,284326652550654E-001	1,000000000000000E+000	8,2877392E-005	40	8,3016217E-005
2	1	0	1	0	1,229799968932639E+000	6,5947020E-001	6,5971553E-001	1,310719390419159E-001	1,000000000000000E+000	8,6344073E-005	40	8,6470194E-005
2	1	0	1	0	1,256399968260666E+000	6,7276335E-001	6,7302155E-001	1,336849292701419E-001	1,000000000000000E+000	8,9867513E-005	40	8,9972840E-005
2	1	0	1	0	1,282999967588694E+000	6,8605661E-001	6,8635249E-001	1,363312618845764E-001	1,000000000000000E+000	9,3460811E-005	40	9,3571303E-005
2	1	0	1	0	1,309799966911669E+000	6,9944966E-001	6,9969767E-001	1,389763247667966E-001	1,000000000000000E+000	9,7152108E-005	40	9,7241413E-005
2	1	0	1	0	1,336399966239696E+000	7,1276504E-001	7,1300727E-001	1,416057507856752E-001	1,000000000000000E+000	1,0088618E-004	40	1,0096593E-004
2	1	0	1	0	1,362999965567724E+000	7,2606921E-001	7,2631502E-001	1,442397416588703E-001	1,000000000000000E+000	1,0469010E-004	40	1,0476349E-004
2	1	0	1	0	1,389599964895751E+000	7,3936248E-001	7,3964465E-001	1,468500168082156E-001	1,000000000000000E+000	1,0856392E-004	40	1,0861683E-004
2	1	0	1	0	1,416399964218726E+000	7,5275552E-001	7,5301921E-001	1,495252801726261E-001	1,000000000000000E+000	1,1253719E-004	40	1,1259541E-004
2	1	0	1	0	1,442999963546754E+000	7,6604873E-001	7,6634985E-001	1,521360278207192E-001	1,000000000000000E+000	1,1655115E-004	40	1,1658942E-004
2	1	0	1	0	1,469599962874781E+000	7,7937520E-001	7,7963704E-001	1,547581852433121E-001	1,000000000000000E+000	1,2063484E-004	40	1,2065521E-004
2	1	0	1	0	1,496199962202809E+000	7,9266834E-001	7,9290974E-001	1,573649512642687E-001	1,000000000000000E+000	1,2478852E-004	40	1,2477620E-004
2	1	0	1	0	1,522999961525784E+000	8,0606145E-001	8,0632377E-001	1,600341611483604E-001	1,000000000000000E+000	1,2904425E-004	40	1,2903934E-004
2	1	0	1	0	1,549599960853811E+000	8,1935465E-001	8,1964666E-001	1,626898043226296E-001	1,000000000000000E+000	1,3333847E-004	40	1,3334815E-004
2	1	0	1	0	1,576199960181839E+000	8,3264768E-001	8,3290803E-001	1,653114171582271E-001	1,000000000000000E+000	1,3770259E-004	40	1,3768920E-004
2	1	0	1	0	1,602799959509866E+000	8,4597433E-001	8,4623986E-001	1,679245791669626E-001	1,000000000000000E+000	1,4213673E-004	40	1,4210447E-004
2	1	0	1	0	1,629599958832841E+000	8,5936737E-001	8,5963291E-001	1,705814921394151E-001	1,000000000000000E+000	1,4667520E-004	40	1,4663747E-004
2	1	0	1	0	1,656199958160869E+000	8,7266052E-001	8,7290996E-001	1,732104368139216E-001	1,000000000000000E+000	1,5125009E-004	40	1,5119712E-004
2	1	0	1	0	1,682799957488896E+000	8,8595366E-001	8,8617128E-001	1,758347947887771E-001	1,000000000000000E+000	1,5589455E-004	40	1,5581974E-004
2	1	0	1	0	1,709599956811871E+000	8,9934677E-001	8,9967680E-001	1,785045975198352E-001	1,000000000000000E+000	1,6064470E-004	40	1,6059645E-004
2	1	0	1	0	1,736199956139899E+000	9,1267329E-001	9,1296971E-001	1,811233823653313E-001	1,000000000000000E+000	1,6542998E-004	40	1,6536016E-004
2	1	0	1	0	1,762799955467926E+000	9,2596656E-001	9,2625147E-001	1,837374698079661E-001	1,000000000000000E+000	1,7028501E-004	40	1,7018711E-004
2	1	0	1	0	1,789399954795954E+000	9,3925971E-001	9,3954027E-001	1,863687580703606E-001	1,000000000000000E+000	1,7520966E-004	40	1,7510095E-004
2	1	0	1	0	1,816199954118929E+000	9,5265281E-001	9,5291221E-001	1,890168223316637E-001	1,000000000000000E+000	1,8024191E-004	40	1,8011643E-004
2	1	0	1	0	1,842799953446956E+000	9,6594590E-001	9,6620083E-001	1,916261667851362E-001	1,000000000000000E+000	1,8530669E-004	40	1,8514936E-004
2	1	0	1	0	1,869399952774984E+000	9,7927237E-001	9,7951555E-001	1,942758456318803E-001	1,000000000000000E+000	1,9044139E-004	40	1,9029621E-004
2	1	0	1	0	1,895999952103011E+000	9,9256563E-001	9,9283201E-001	1,969143229148660E-001	1,000000000000000E+000	1,9564632E-004	40	1,9550284E-004
2	1	0	1	0	1,914599951633136E+000	9,9829590E-001	9,9860054E-001	1,972954799945001E-001	1,000000000000000E+000	1,9932228E-004	40	1,9701937E-004
2	1	0	1	0	1,941399950956111E+000	9,8490280E-001	9,8518974E-001	1,943148452710979E-001	1,000000000000000E+000	2,0456414E-004	40	1,9143699E-004
2	1	0	1	0	1,967999950284138E+000	9,7158748E-001	9,7180492E-001	1,916413389068716E-001	1,000000000000000E+000	2,0969527E-004	40	1,8623800E-004
2	1	0	1	0	1,994599949612166E+000	9,5828319E-001	9,5853561E-001	1,890207131199229E-001	1,000000000000000E+000	2,1475652E-004	40	1,8118309E-004
2	1	0	1	0	2,021199948940193E+000	9,4498998E-001	9,4523299E-001	1,864142339307966E-001	1,000000000000000E+000	2,1974795E-004	40	1,7620488E-004
2	1	0	1	0	2,047999948263168E+000	9,3159693E-001	9,3181902E-001	1,837544278261102E-001	1,000000000000000E+000	2,2470638E-004	40	1,7122587E-004
2	1	0	1	0	2,074599947591196E+000	9,1830379E-001	9,1861540E-001	1,811494231301677E-001	1,000000000000000E+000	2,2955780E-004	40	1,6640665E-004
2	1	0	1	0	2,101199946919223E+000	9,0497726E-001	9,0525067E-001	1,785038359036362E-001	1,000000000000000E+000	2,3433931E-004	40	1,6159072E-004
2	1	0	1	0	2,127799946247251E+000	8,9168417E-001	8,9192384E-001	1,758683269513615E-001	1,000000000000000E+000	2,3905058E-004	40	1,5686115E-004
2	1	0	1	0	2,154599945570226E+000	8,7829095E-001	8,7856752E-001	1,732138300430957E-001	1,000000000000000E+000	2,4372665E-004	40	1,5218004E-004
2	1	0	1	0	2,181199944898253E+000	8,6499780E-001	8,6524707E-001	1,706077667787511E-001	1,000000000000000E+000	2,4829750E-004	40	1,4761787E-004
2	1	0	1	0	2,207799944226281E+000	8,5170466E-001	8,5195035E-001	1,679694434821917E-001	1,000000000000000E+000	2,5279869E-004	40	1,4310163E-004
2	1	0	1	0	2,234399943554308E+000	8,3837819E-001	8,3864027E-001	1,653364324398960E-001	1,000000000000000E+000	2,5722964E-004	40	1,3865779E-004
2	1	0	1	0	2,261199942877283E+000	8,2498509E-001	8,2525492E-001	1,627033156944289E-001	1,000000000000000E+000	2,6162298E-004	40	1,3427172E-004
2	1	0	1	0	2,287799942205311E+000	8,1169194E-001	8,1192362E-001	1,600547734356953E-001	1,000000000000000E+000	2,6591361E-004	40	1,2995226E-004
2	1	0	1	0	2,314399941533338E+000	7,9839879E-001	7,9866928E-001	1,574464253421564E-001	1,000000000000000E+000	2,7013413E-004	40	1,2574763E-004
2	1	0	1	0	2,341199940856313E+000	7,8500569E-001	7,8527892E-001	1,547892087740672E-001	1,000000000000000E+000	2,7431580E-004	40	1,2155270E-004
2	1	0	1	0	2,367799940184341E+000	7,7167910E-001	7,7192128E-001	1,521535658956664E-001	1,000000000000000E+000	2,7839589E-004	40	1,1745057E-004
2	1	0	1	0	2,394399939512368E+000	7,5838608E-001	7,5866163E-001	1,495428788456286E-001	1,000000000000000E+000	2,8240605E-004	40	1,1345244E-004
2	1	0	1	0	2,420999938840396E+000	7,4509293E-001	7,4536633E-001	1,468859776932130E-001	1,000000000000000E+000	2,8634642E-004	40	1,0948387E-004
2	1	0	1	0	2,447799938163371E+000	7,3169976E-001	7,3199713E-001	1,442686485165422E-001	1,000000000000000E+000	2,9024598E-004	40	1,0560424E-004
2	1	0	1	0	2,474399937491398E+000	7,1840656E-001	7,1866560E-001	1,416487115493512E-001	1,000000000000000E+000	2,9404639E-004	40	1,0179805E-004
2	1	0	1	0	2,500999936819426E+000	7,0508009E-001	7,0531905E-001	1,389849187262988E-001	1,000000000000000E+000	2,9777689E-004	40	9,8028708E-005
2	1	0	1	0	2,527599936147453E+000	6,9178694E-001	6,9205487E-001	1,363820434276330E-001	1,000000000000000E+000	3,0143725E-004	40	9,4383860E-005
2	1	0	1	0	2,554399935470428E+000	6,7839384E-001	6,7861772E-001	1,337062304296219E-001	1,000000000000000E+000	3,0505424E-004	40	9,0735419E-005
2	1	0	1	0	2,580999934798456E+000	6,6510069E-001	6,6532332E-001	1,310761397083600E-001	1,000000000000000E+000	3,0857403E-004	40	8,7208013E-005
2	1	0	1	0	2,607599934126483E+000	6,5180749E-001	6,5207553E-001	1,284665123210287E-001	1,000000000000000E+000	3,1202409E-004	40	8,3769868E-005
2	1	0	1	0	2,634199933454511E+000	6,3848096E-001	6,3871461E-001	1,258072079469761E-001	1,000000000000000E+000	3,1540380E-004	40	8,0354905E-005
2	1	0	1	0	2,660999932777486E+000	6,2508792E-001	6,2535763E-001	1,231861311282654E-001	1,000000000000000E+000	3,1873796E-004	40	7,7035387E-005
2	1	0	1	0	2,687599932105513E+000	6,1179477E-001	6,1203837E-001	1,205629512628854E-001	1,000000000000000E+000	3,2197742E-004	40	7,3789153E-005
2	1	0	1	0	2,714199931433541E+000	5,9850162E-001	5,9873861E-001	1,179326424122946E-001	1,000000000000000E+000	3,2514689E-004	40	7,0610826E-005
2	1	0	1	0	2,740999930756516E+000	5,8510846E-001	5,8538491E-001	1,152645588580833E-001	1,000000000000000E+000	3,2826935E-004	40	6,7474131E-005
2	1	0	1	0	2,767599930084543E+000	5,7178199E-001	5,7207507E-001	1,126368525379799E-001	1,000000000000000E+000	3,3129842E-004	40	6,4436732E-005
2	1	0	1	0	2,794199929412571E+000	5,5848879E-001	5,5874592E-001	1,100064172467681E-001	1,000000000000000E+000	3,3425764E-004	40	6,1465638E-005
2	1	0	1	0	2,820799928740598E+000	5,4519570E-001	5,4548764E-001	1,073988938665327E-001	1,000000000000000E+000	3,3714672E-004	40	5,8584770E-005
2	1	0	1	0	2,847599928063573E+000	5,3180254E-001	5,3205597E-001	1,047501231485513E-001	1,000000000000000E+000	3,3998708E-004	40	5,5732929E-005
2	1	0	1	0	2,874199927391601E+000	5,1849830E-001	5,1879221E-001	1,021127503442891E-001	1,000000000000000E+000	3,4273608E-004	40	5,2975298E-005
2	1	0	1	0	2,900799926719628E+000	5,0518292E-001	5,0544506E-001	9,947751439467567E-002	1,000000000000000E+000	3,4541512E-004	40	5,0280418E-005
2	1	0	1	0	2,927399926047656E+000	4,9188974E-001	4,9218994E-001	9,685216347764580E-002	1,000000000000000E+000	3,4802413E-004	40	4,7669662E-005
2	1	0	1	0	2,954199925370631E+000	4,7849661E-001	4,7878471E-001	9,421724304944967E-002	1,000000000000000E+000	3,5058218E-004	40	4,5109777E-005
2	1	0	1	0	2,980799924698658E+000	4,6520346E-001	4,6543556E-001	9,156748444268770E-002	1,000000000000000E+000	3,5305077E-004	40	4,2618765E-005
2	1	0	1	0	3,007399924026686E+000	4,5187697E-001	4,5215800E-001	8,894013223083097E-002	1,000000000000000E+000	3,5544951E-004	40	4,0214993E-005
2	1	0	1	0	3,033999923354713E+000	4,3858382E-001	4,3883958E-001	8,629919882902559E-002	1,000000000000000E+000	3,5777807E-004	40	3,7871505E-005
2	1	0	1	0	3,060799922677688E+000	4,2519075E-001	4,2543116E-001	8,365542136695403E-002	1,000000000000000E+000	3,6005344E-004	40	3,5589623E-005
2	1	0	1	0	3,087399922005716E+000	4,1189754E-001	4,1220060E-001	8,103481804719193E-002	1,000000000000000E+000	3,6224164E-004	40	3,3402601E-005
2	1	0	1	0	3,113999921333743E+000	3,9860439E-001	3,9883167E-001	7,839346532806935E-002	1,000000000000000E+000	3,6436011E-004	40	3,1265798E-005
2	1	0	1	0	3,140599920661771E+000	3,8527787E-001	3,8550755E-001	7,576684765905783E-002	1,000000000000000E+000	3,6640870E-004	40	2,9208692E-005
2	1	0	1	0	3,167399919984746E+000	3,7188482E-001	3,7217736E-001	7,313150998379597E-002	1,000000000000000E+000	3,6840155E-004	40	2,7217893E-005
2	1	0	1	0	3,193999919312773E+000	3,5859168E-001	3,5884526E-001	7,049210270245865E-002	1,000000000000000E+000	3,7030963E-004	40	2,5295758E-005
2	1	0	1	0	3,220599918640801E+000	3,4529850E-001	3,4553581E-001	6,785526244978735E-002	1,000000000000000E+000	3,7214762E-004	40	2,3446424E-005
2	1	0	1	0	3,247399917963776E+000	3,3190536E-001	3,3218181E-001	6,519911640595333E-002	1,000000000000000E+000	3,7392875E-004	40	2,1657961E-005
2	1	0	1	0	3,273999917291803E+000	3,1857890E-001	3,1882477E-001	6,256861188351975E-002	1,000000000000000E+000	3,7562641E-004	40	1,9948424E-005
2	1	0	1	0	3,300599916619831E+000	3,0528572E-001	3,0558223E-001	5,999727360710194E-002	1,000000000000000E+000	3,7725433E-004	40	1,8334100E-005
2	1	0	1	0	3,327199915947858E+000	2,9199257E-001	2,9225016E-001	5,735044449781224E-002	1,000000000000000E+000	3,7881211E-004	40	1,6760676E-005
2	1	0	1	0	3,353999915270833E+000	2,7859947E-001	2,7882051E-001	5,467408564970069E-002	1,000000000000000E+000	3,8031087E-004	40	1,5244256E-005
2	1	0	1	0	3,380599914598861E+000	2,6530629E-001	2,6554254E-001	5,207120781124108E-002	1,000000000000000E+000	3,8172843E-004	40	1,3827121E-005
2	1	0	1	0	3,407199913926888E+000	2,5197980E-001	2,5228474E-001	4,940913794950286E-002	1,000000000000000E+000	3,8307605E-004	40	1,2465171E-005
2	1	0	1	0	3,433799913254916E+000	2,3868665E-001	2,3899412E-001	4,678936071092421E-002	1,000000000000000E+000	3,8435345E-004	40	1,1182382E-005
2	1	0	1	0	3,460599912577891E+000	2,2529353E-001	2,2554263E-001	4,415657082039015E-002	1,000000000000000E+000	3,8556985E-004	40	9,9591889E-006
2	1	0	1	0	3,487199911905918E+000	2,1200038E-001	2,1225463E-001	4,152466881205341E-002	1,000000000000000E+000	3,8670716E-004	40	8,8138031E-006
2	1	0	1	0	3,513799911233946E+000	1,9870724E-001	1,9897866E-001	3,890301379772926E-002	1,000000000000000E+000	3,8777443E-004	40	7,7408695E-006
2	1	0	1	0	3,540399910561973E+000	1,8538074E-001	1,8566102E-001	3,623387848444204E-002	1,000000000000000E+000	3,8877167E-004	40	6,7272190E-006
2	1	0	1	0	3,597199909127085E+000	1,5699534E-001	1,5724629E-001	3,054323603913270E-002	1,000000000000000E+000	3,9072472E-004	41	4,8028105E-006
2	1	0	1	0	3,623799908455112E+000	1,4370218E-001	1,4398253E-001	2,791976622005066E-002	1,000000000000000E+000	3,9150025E-004	41	4,0199584E-006
2	1	0	1	0	3,650399907783140E+000	1,3040902E-001	1,3067354E-001	2,528644266955482E-002	1,000000000000000E+000	3,9220587E-004	41	3,3042691E-006
2	1	0	1	0	3,676999907111167E+000	1,1708254E-001	1,1734322E-001	2,265971571250711E-002	1,000000000000000E+000	3,9284126E-004	41	2,6589639E-006
2	1	0	1	0	3,703799906434142E+000	1,0368943E-001	1,0397322E-001	2,001028317026795E-002	1,000000000000000E+000	3,9341082E-004	41	2,0805335E-006
2	1	0	1	0	3,730399905762170E+000	9,0396255E-002	9,0643771E-002	1,737940280387804E-002	1,000000000000000E+000	3,9390600E-004	41	1,5753346E-006
2	1	0	1	0	3,756999905090197E+000	7,7103101E-002	7,7346429E-002	1,475638190847048E-002	1,000000000000000E+000	3,9433132E-004	41	1,1413534E-006
2	1	0	1	0	3,783699904415698E+000	6,3743301E-002	6,4020470E-002	1,211139974738812E-002	1,000000000000000E+000	3,9468802E-004	41	7,7537749E-007
2	1	0	1	0	3,810399903741200E+000	5,0383508E-002	5,0646473E-002	9,475189212753331E-003	1,000000000000000E+000	3,9497408E-004	41	4,7988493E-007
2	1	0	1	0	3,836999903069227E+000	3,7090346E-002	3,7340619E-002	6,845078974583897E-003	1,000000000000000E+000	3,9518901E-004	41	2,5559947E-007
2	1	0	1	0	3,863599902397254E+000	2,3797181E-002	2,4082499E-002	4,212632414661743E-003	1,000000000000000E+000	3,9533403E-004	41	1,0145072E-007
2	1	0	1	0	3,890399901720230E+000	1,0404070E-002	1,0668761E-002	1,571034161058072E-003	1,000000000000000E+000	3,9540947E-004	41	1,6760987E-008
2	0	0	1	0	3,916999901048257E+000	-2,9224090E-003	-2,6924696E-003	-1,079184711140138E-003	1,000000000000000E+000	3,9541392E-004	41	2,9056721E-009
2	0	0	1	0	3,943599900376285E+000	-1,6215580E-002	-1,5971953E-002	-3,704159876421420E-003	1,000000000000000E+000	3,9534827E-004	41	5,9162666E-008
2	0	0	1	0	3,970199899704312E+000	-2,9508749E-002	-2,9286077E-002	-6,326726110698136E-003	1,000000000000000E+000	3,9521270E-004	41	1,8528499E-007
2	0	0	1	0	3,996999899027287E+000	-4,2901862E-002	-4,2723093E-002	-8,984022042447262E-003	1,000000000000000E+000	3,9500548E-004	41	3,8382521E-007
2	0	0	1	0	4,023599898355315E+000	-5,6195032E-002	-5,5908743E-002	-1,160584439142739E-002	1,000000000000000E+000	3,9472955E-004	41	6,4886819E-007
2	0	0	1	0	4,050199897683342E+000	-6,9521517E-002	-6,9298841E-002	-1,424024123746986E-002	1,000000000000000E+000	3,9438368E-004	41	9,8683222E-007
2	0	0	1	0	4,076799897011369E+000	-8,2814686E-002	-8,2600445E-002	-1,686495580967554E-002	1,000000000000000E+000	3,9396784E-004	41	1,3930528E-006
2	0	0	1	0	4,103599896334345E+000	-9,6207805E-002	-9,5973372E-002	-1,951677934266625E-002	1,000000000000000E+000	3,9347826E-004	41	1,8730912E-006
2	0	0	1	0	4,130199895662372E+000	-1,0950097E-001	-1,0926475E-001	-2,213960294514727E-002	1,000000000000000E+000	3,9292223E-004	41	2,4190783E-006
2	0	0	1	0	4,156799894990399E+000	-1,2279415E-001	-1,2256362E-001	-2,475901515329797E-002	1,000000000000000E+000	3,9229638E-004	41	3,0345545E-006
2	0	0	1	0	4,183399894318427E+000	-1,3612063E-001	-1,3587692E-001	-2,740685114016136E-002	1,000000000000000E+000	3,9160030E-004	41	3,7239586E-006
2	0	0	1	0	4,210199893641402E+000	-1,4951374E-001	-1,4931636E-001	-3,004946805740466E-002	1,000000000000000E+000	3,9082827E-004	41	4,4868771E-006
2	0	0	1	0	4,236799892969429E+000	-1,6280691E-001	-1,6256568E-001	-3,266831579821883E-002	1,000000000000000E+000	3,8999194E-004	41	5,3107469E-006
2	0	0	1	0	4,263399892297457E+000	-1,7610008E-001	-1,7583424E-001	-3,530348387042354E-002	1,000000000000000E+000	3,8908565E-004	41	6,2075610E-006
2	0	0	1	0	4,290199891620432E+000	-1,8949316E-001	-1,8925434E-001	-3,795637600123872E-002	1,000000000000000E+000	3,8810191E-004	41	7,1834088E-006
2	0	0	1	0	4,316799890948460E+000	-2,0281966E-001	-2,0258194E-001	-4,057970215168699E-002	1,000000000000000E+000	3,8705522E-004	41	8,2207152E-006
2	0	0	1	0	4,343399890276487E+000	-2,1611285E-001	-2,1590553E-001	-4,322010099567697E-002	1,000000000000000E+000	3,8593850E-004	41	9,3314593E-006
2	0	0	1	0	4,369999889604514E+000	-2,2940603E-001	-2,2921346E-001	-4,584344965502773E-002	1,000000000000000E+000	3,8475188E-004	41	1,0507936E-005
2	0	0	1	0	4,396799888927490E+000	-2,4279915E-001	-2,4256049E-001	-4,849167334323290E-002	1,000000000000000E+000	3,8348560E-004	41	1,1762164E-005
2	0	0	1	0	4,423399888255517E+000	-2,5609228E-001	-2,5585866E-001	-5,111643154814371E-002	1,000000000000000E+000	3,8215873E-004	41	1,3078582E-005
2	0	0	1	0	4,449999887583544E+000	-2,6941878E-001	-2,6915947E-001	-5,375128264228493E-002	1,000000000000000E+000	3,8076186E-004	41	1,4467667E-005
2	0	0	1	0	4,476599886911572E+000	-2,8271198E-001	-2,8249070E-001	-5,637699256767514E-002	1,000000000000000E+000	3,7929506E-004	41	1,5925976E-005
2	0	0	1	0	4,503399886234547E+000	-2,9610512E-001	-2,9589012E-001	-5,903592049241224E-002	1,000000000000000E+000	3,7774656E-004	41	1,7468146E-005
2	0	0	1	0	4,529999885562574E+000	-3,0939826E-001	-3,0917299E-001	-6,165425213888120E-002	1,000000000000000E+000	3,7613933E-004	41	1,9061830E-005
2	0	0	1	0	4,556599884890602E+000	-3,2269141E-001	-3,2246488E-001	-6,427851191450196E-002	1,000000000000000E+000	3,7446228E-004	41	2,0727563E-005
2	0	0	1	0	4,583199884218629E+000	-3,3601791E-001	-3,3580181E-001	-6,691685844464978E-002	1,000000000000000E+000	3,7271515E-004	41	2,2470802E-005
2	0	0	1	0	4,609999883541605E+000	-3,4941104E-001	-3,4923139E-001	-6,957209659158226E-002	1,000000000000000E+000	3,7088405E-004	41	2,4296760E-005
2	0	0	1	0	4,636599882869632E+000	-3,6270419E-001	-3,6251855E-001	-7,219258820017149E-002	1,000000000000000E+000	3,6899655E-004	41	2,6171152E-005
2	0	0	1	0	4,663199882197659E+000	-3,7599736E-001	-3,7577158E-001	-7,482035274345722E-002	1,000000000000000E+000	3,6703917E-004	41	2,8115363E-005
2	0	0	1	0	4,689899881523161E+000	-3,8935715E-001	-3,8913271E-001	-7,747401047702707E-002	1,000000000000000E+000	3,6500400E-004	41	3,0147672E-005
2	0	0	1	0	4,716599880848662E+000	-4,0271699E-001	-4,0250137E-001	-8,010637870465864E-002	1,000000000000000E+000	3,6289822E-004	41	3,2242926E-005
2	0	0	1	0	4,743199880176689E+000	-4,1601014E-001	-4,1579896E-001	-8,273263673375686E-002	1,000000000000000E+000	3,6073040E-004	41	3,4400146E-005
2	0	0	1	0	4,769799879504717E+000	-4,2930329E-001	-4,2908296E-001	-8,535931535880059E-002	1,000000000000000E+000	3,5849269E-004	41	3,6626228E-005
2	0	0	1	0	4,796599878827692E+000	-4,4269642E-001	-4,4243467E-001	-8,800314321512506E-002	1,000000000000000E+000	3,5616758E-004	41	3,8935643E-005
2	0	0	1	0	4,823199878155719E+000	-4,5602286E-001	-4,5576918E-001	-9,063670340498575E-002	1,000000000000000E+000	3,5378963E-004	41	4,1309417E-005
2	0	0	1	0	4,849799877483747E+000	-4,6931610E-001	-4,6908820E-001	-9,326819795339003E-002	1,000000000000000E+000	3,5134165E-004	41	4,3751010E-005
2	0	0	1	0	4,876399876811774E+000	-4,8260924E-001	-4,8239109E-001	-9,589483839129853E-002	1,000000000000000E+000	3,4882370E-004	41	4,6258814E-005
2	0	0	1	0	4,903199876134750E+000	-4,9600241E-001	-4,9579906E-001	-9,854507254882883E-002	1,000000000000000E+000	3,4621614E-004	41	4,8858554E-005
2	0	0	1	0	4,929799875462777E+000	-5,0929552E-001	-5,0910968E-001	-1,011775391215146E-001	1,000000000000000E+000	3,4355791E-004	41	5,1510466E-005
2	0	0	1	0	4,956399874790804E+000	-5,2262205E-001	-5,2237755E-001	-1,038026698263517E-001	1,000000000000000E+000	3,4082960E-004	41	5,4224183E-005
2	0	0	1	0	4,982999874118832E+000	-5,3591514E-001	-5,3566688E-001	-1,064291109059314E-001	1,000000000000000E+000	3,3803142E-004	41	5,7010551E-005
2	0	0	1	0	5,009799873441807E+000	-5,4930830E-001	-5,4908532E-001	-1,090739046786133E-001	1,000000000000000E+000	3,3514158E-004	41	5,9890881E-005
2	0	0	1	0	5,066399872011971E+000	-5,7759374E-001	-5,7739103E-001	-1,145605264444987E-001	1,000000000000000E+000	3,2884823E-004	40	6,6146218E-005
2	0	0	1	0	5,092999871339998E+000	-5,9092027E-001	-5,9069937E-001	-1,172045870412448E-001	1,000000000000000E+000	3,2576337E-004	40	6,9232679E-005
2	0	0	1	0	5,119599870668026E+000	-6,0421342E-001	-6,0391611E-001	-1,198250320681835E-001	1,000000000000000E+000	3,2260883E-004	40	7,2364266E-005
2	0	0	1	0	5,146399869991001E+000	-6,1760652E-001	-6,1737621E-001	-1,224949947209097E-001	1,000000000000000E+000	3,1935991E-004	40	7,5625496E-005
2	0	0	1	0	5,172999869319028E+000	-6,3089967E-001	-6,3068563E-001	-1,250962952481736E-001	1,000000000000000E+000	3,1606515E-004	40	7,8896439E-005
2	0	0	1	0	5,199599868647056E+000	-6,4419287E-001	-6,4392191E-001	-1,277383424923753E-001	1,000000000000000E+000	3,1270040E-004	40	8,2253515E-005
2	0	0	1	0	5,226199867975083E+000	-6,5751940E-001	-6,5731221E-001	-1,303610779267421E-001	1,000000000000000E+000	3,0926563E-004	40	8,5687927E-005
2	0	0	1	0	5,252999867298058E+000	-6,7091250E-001	-6,7069978E-001	-1,330110285140106E-001	1,000000000000000E+000	3,0573460E-004	40	8,9210465E-005
2	0	0	1	0	5,279599866626086E+000	-6,8420571E-001	-6,8401563E-001	-1,356690800069673E-001	1,000000000000000E+000	3,0215966E-004	40	9,2799768E-005
2	0	0	1	0	5,306199865954113E+000	-6,9749880E-001	-6,9728941E-001	-1,382664253527763E-001	1,000000000000000E+000	2,9851435E-004	40	9,6411713E-005
2	0	0	1	0	5,332999865277088E+000	-7,1089190E-001	-7,1066761E-001	-1,408844561257858E-001	1,000000000000000E+000	2,9477102E-004	40	1,0012202E-004
2	0	0	1	0	5,359599864605116E+000	-7,2421843E-001	-7,2401530E-001	-1,435600816543832E-001	1,000000000000000E+000	2,9098542E-004	40	1,0393970E-004
2	0	0	1	0	5,386199863933143E+000	-7,3751163E-001	-7,3727584E-001	-1,461436729800574E-001	1,000000000000000E+000	2,8712957E-004	40	1,0774820E-004
2	0	0	1	0	5,412799863261171E+000	-7,5080478E-001	-7,5060290E-001	-1,488190155767366E-001	1,000000000000000E+000	2,8320367E-004	40	1,1170399E-004
2	0	0	1	0	5,439599862584146E+000	-7,6419789E-001	-7,6399821E-001	-1,514624055766033E-001	1,000000000000000E+000	2,7917791E-004	40	1,1571700E-004
2	0	0	1	0	5,466199861912173E+000	-7,7749103E-001	-7,7724898E-001	-1,540740308371218E-001	1,000000000000000E+000	2,7511205E-004	40	1,1975388E-004
2	0	0	1	0	5,492799861240201E+000	-7,9081756E-001	-7,9058033E-001	-1,567334532078040E-001	1,000000000000000E+000	2,7097607E-004	40	1,2391039E-004
2	0	0	1	0	5,519399860568228E+000	-8,0411071E-001	-8,0388409E-001	-1,593563531176183E-001	1,000000000000000E+000	2,6677019E-004	40	1,2810403E-004
2	0	0	1	0	5,546199859891203E+000	-8,1750375E-001	-8,1730288E-001	-1,620063964568543E-001	1,000000000000000E+000	2,6246181E-004	40	1,3240830E-004
2	0	0	1	0	5,572799859219231E+000	-8,3079690E-001	-8,3060336E-001	-1,646212402808791E-001	1,000000000000000E+000	2,5811550E-004	40	1,3673496E-004
2	0	0	1	0	5,599399858547258E+000	-8,4411234E-001	-8,4391856E-001	-1,672553999310662E-001	1,000000000000000E+000	2,5369969E-004	40	1,4114994E-004
2	0	0	1	0	5,625999857875286E+000	-8,5741669E-001	-8,5719407E-001	-1,698767987021706E-001	1,000000000000000E+000	2,4921374E-004	40	1,4561738E-004
2	0	0	1	0	5,652799857198261E+000	-8,7080979E-001	-8,7060076E-001	-1,724994708589902E-001	1,000000000000000E+000	2,4462352E-004	40	1,5017817E-004
2	0	0	1	0	5,679399856526288E+000	-8,8410288E-001	-8,8387752E-001	-1,751433755251733E-001	1,000000000000000E+000	2,3999753E-004	40	1,5480530E-004
2	0	0	1	0	5,705999855854316E+000	-8,9739603E-001	-8,9723343E-001	-1,778022248957618E-001	1,000000000000000E+000	2,3530159E-004	40	1,5953010E-004
2	0	0	1	0	5,732599855182343E+000	-9,1072255E-001	-9,1050601E-001	-1,804215557077749E-001	1,000000000000000E+000	2,3053552E-004	40	1,6427491E-004
2	0	0	1	0	5,759399854505318E+000	-9,2411566E-001	-9,2391264E-001	-1,830567369703200E-001	1,000000000000000E+000	2,2566294E-004	40	1,6912843E-004
2	0	0	1	0	5,785999853833346E+000	-9,3740880E-001	-9,3718624E-001	-1,856892367708487E-001	1,000000000000000E+000	2,2075660E-004	40	1,7402539E-004
2	0	0	1	0	5,812599853161373E+000	-9,5070195E-001	-9,5043278E-001	-1,883215480212435E-001	1,000000000000000E+000	2,1578002E-004	40	1,7898697E-004
2	0	0	1	0	5,839399852484348E+000	-9,6409512E-001	-9,6385616E-001	-1,909468633724217E-001	1,000000000000000E+000	2,1069548E-004	40	1,8404530E-004
2	0	0	1	0	5,865999851812376E+000	-9,7742164E-001	-9,7718179E-001	-1,935906422343882E-001	1,000000000000000E+000	2,0557898E-004	40	1,8917325E-004
2	0	0	1	0	5,892599851140403E+000	-9,9071485E-001	-9,9046093E-001	-1,962451096042055E-001	1,000000000000000E+000	2,0039217E-004	40	1,9437312E-004
2	0	0	1	1	5,911399850665475E+000	-9,9987650E-001	-9,9969536E-001	-1,979834251105785E-001	1,000000000000000E+000	1,9668473E-004	40	1,9792312E-004
2	0	0	1	1	5,934999850069289E+000	-9,8804957E-001	-9,8784602E-001	-1,946290162702395E-001	1,000000000000000E+000	1,9206438E-004	40	1,9226350E-004
2	0	0	1	1	5,961599849397317E+000	-9,7475624E-001	-9,7450560E-001	-1,919976840785242E-001	1,000000000000000E+000	1,8692492E-004	40	1,8710282E-004
2	0	0	1	1	5,988199848725344E+000	-9,6142983E-001	-9,6117431E-001	-1,893529465751880E-001	1,000000000000000E+000	1,8185559E-004	40	1,8200118E-004
2	0	0	1	1	6,014999848048319E+000	-9,4803679E-001	-9,4781518E-001	-1,867048201306414E-001	1,000000000000000E+000	1,7681868E-004	40	1,7696166E-004
2	0	0	1	1	6,041599847376347E+000	-9,3474352E-001	-9,3451774E-001	-1,840686640314133E-001	1,000000000000000E+000	1,7188952E-004	40	1,7201543E-004
2	0	0	1	1	6,068199846704374E+000	-9,2145038E-001	-9,2124605E-001	-1,814462407472696E-001	1,000000000000000E+000	1,6703059E-004	40	1,6715663E-004
2	0	0	1	1	6,094899846029875E+000	-9,0807903E-001	-9,0788442E-001	-1,787940981749701E-001	1,000000000000000E+000	1,6222343E-004	40	1,6232437E-004
2	0	0	1	1	6,121599845355377E+000	-8,9473081E-001	-8,9455408E-001	-1,761751503994067E-001	1,000000000000000E+000	1,5748663E-004	40	1,5759820E-004
2	0	0	1	1	6,148199844683404E+000	-8,8143760E-001	-8,8119531E-001	-1,735099651714940E-001	1,000000000000000E+000	1,5283826E-004	40	1,5289617E-004
2	0	0	1	1	6,174799844011432E+000	-8,6814451E-001	-8,6794752E-001	-1,709064710594247E-001	1,000000000000000E+000	1,4825953E-004	40	1,4833784E-004
2	0	0	1	1	6,201599843334407E+000	-8,5475129E-001	-8,5455590E-001	-1,682691526172371E-001	1,000000000000000E+000	1,4371669E-004	40	1,4379541E-004
2	0	0	1	1	6,228199842662434E+000	-8,4142488E-001	-8,4117597E-001	-1,656282900890802E-001	1,000000000000000E+000	1,3927816E-004	40	1,3932254E-004
2	0	0	1	1	6,254799841990462E+000	-8,2813168E-001	-8,2791603E-001	-1,630173867975833E-001	1,000000000000000E+000	1,3490906E-004	40	1,3496471E-004
2	0	0	1	1	6,281399841318489E+000	-8,1483865E-001	-8,1461632E-001	-1,603822995850349E-001	1,000000000000000E+000	1,3060997E-004	40	1,3065003E-004
2	0	0	1	1	6,308199840641464E+000	-8,0144542E-001	-8,0118215E-001	-1,577220570878121E-001	1,000000000000000E+000	1,2634929E-004	40	1,2636410E-004
2	0	0	1	1	6,334799839969492E+000	-7,8815228E-001	-7,8793001E-001	-1,550960409144561E-001	1,000000000000000E+000	1,2219047E-004	40	1,2220483E-004
2	0	0	1	1	6,361399839297519E+000	-7,7482581E-001	-7,7460974E-001	-1,524705026007713E-001	1,000000000000000E+000	1,1810186E-004	40	1,1810513E-004
2	0	0	1	1	6,387999838625547E+000	-7,6153260E-001	-7,6129556E-001	-1,498469301809862E-001	1,000000000000000E+000	1,1408301E-004	40	1,1407780E-004
2	0	0	1	1	6,414799837948522E+000	-7,4813938E-001	-7,4797523E-001	-1,471843598740332E-001	1,000000000000000E+000	1,1010451E-004	40	1,1009025E-004
2	0	0	1	1	6,441399837276549E+000	-7,3484623E-001	-7,3468816E-001	-1,445866679442888E-001	1,000000000000000E+000	1,0622599E-004	40	1,0622611E-004
2	0	0	1	1	6,467999836604577E+000	-7,2155315E-001	-7,2131652E-001	-1,419370790031584E-001	1,000000000000000E+000	1,0241735E-004	40	1,0238156E-004
2	0	0	1	1	6,494599835932604E+000	-7,0822662E-001	-7,0799607E-001	-1,393283756411013E-001	1,000000000000000E+000	9,8679047E-005	40	9,8643941E-005
2	0	0	1	1	6,521399835255579E+000	-6,9483346E-001	-6,9457054E-001	-1,366538985535340E-001	1,000000000000000E+000	9,4983159E-005	40	9,4915769E-005
2	0	0	1	1	6,547999834583607E+000	-6,8154031E-001	-6,8130064E-001	-1,340511416317891E-001	1,000000000000000E+000	9,1384965E-005	40	9,1329130E-005
2	0	0	1	1	6,574599833911634E+000	-6,6824722E-001	-6,6800457E-001	-1,313834758727652E-001	1,000000000000000E+000	8,7857123E-005	40	8,7764762E-005
2	0	0	1	1	6,601399833234609E+000	-6,5485406E-001	-6,5461093E-001	-1,287498818749251E-001	1,000000000000000E+000	8,4373118E-005	40	8,4281077E-005
2	0	0	1	1	6,627999832562637E+000	-6,4152753E-001	-6,4130133E-001	-1,261216093436816E-001	1,000000000000000E+000	8,0985410E-005	40	8,0881953E-005
2	0	0	1	1	6,654599831890664E+000	-6,2823445E-001	-6,2801021E-001	-1,234851736284321E-001	1,000000000000000E+000	7,7667566E-005	40	7,7549950E-005
2	0	0	1	1	6,681199831218692E+000	-6,1494118E-001	-6,1470467E-001	-1,208785470245250E-001	1,000000000000000E+000	7,4419644E-005	40	7,4304604E-005
2	0	0	1	1	6,707999830541667E+000	-6,0154808E-001	-6,0131806E-001	-1,182482039264867E-001	1,000000000000000E+000	7,1217954E-005	40	7,1104783E-005
2	0	0	1	1	6,734599829869694E+000	-5,8825487E-001	-5,8804494E-001	-1,155847927264404E-001	1,000000000000000E+000	6,8110203E-005	40	6,7969049E-005
2	0	0	1	1	6,761199829197722E+000	-5,7492846E-001	-5,7470471E-001	-1,129624087615714E-001	1,000000000000000E+000	6,5072658E-005	40	6,4920030E-005
2	0	0	1	1	6,787799828525749E+000	-5,6163532E-001	-5,6139559E-001	-1,103511638978190E-001	1,000000000000000E+000	6,2104904E-005	40	6,1950654E-005
2	0	0	1	1	6,814599827848724E+000	-5,4824215E-001	-5,4802185E-001	-1,076771889134149E-001	1,000000000000000E+000	5,9185375E-005	40	5,9009453E-005
2	0	0	1	1	6,841199827176752E+000	-5,3494900E-001	-5,3475153E-001	-1,050589710687437E-001	1,000000000000000E+000	5,6358287E-005	40	5,6180445E-005
2	0	0	1	1	6,867799826504779E+000	-5,2165586E-001	-5,2142227E-001	-1,024349630790919E-001	1,000000000000000E+000	5,3600968E-005	40	5,3411870E-005
2	0	0	1	1	6,894399825832807E+000	-5,0832933E-001	-5,0809634E-001	-9,977210050080076E-002	1,000000000000000E+000	5,0913415E-005	40	5,0693838E-005
2	0	0	1	1	6,921199825155782E+000	-4,9493629E-001	-4,9471769E-001	-9,714825023353679E-002	1,000000000000000E+000	4,8276623E-005	40	4,8060956E-005
2	0	0	1	1	6,947799824483809E+000	-4,8164308E-001	-4,8139271E-001	-9,450438257772475E-002	1,000000000000000E+000	4,5729950E-005	40	4,5493722E-005
2	0	0	1	1	6,974399823811837E+000	-4,6834993E-001	-4,6812677E-001	-9,187432750283397E-002	1,000000000000000E+000	4,3252985E-005	40	4,3008833E-005
2	0	0	1	1	7,001099823137338E+000	-4,5499009E-001	-4,5476958E-001	-8,926285241513698E-002	1,000000000000000E+000	4,0837036E-005	40	4,0594030E-005
2	0	0	1	1	7,027799822462839E+000	-4,4163033E-001	-4,4136500E-001	-8,662659387045979E-002	1,000000000000000E+000	3,8491507E-005	40	3,8233946E-005
2	0	0	1	1	7,054399821790867E+000	-4,2833713E-001	-4,2808226E-001	-8,398864391589661E-002	1,000000000000000E+000	3,6224654E-005	40	3,5954050E-005
2	0	0	1	1	7,080999821118894E+000	-4,1504398E-001	-4,1482341E-001	-8,137236460655284E-002	1,000000000000000E+000	3,4027598E-005	40	3,3755161E-005
2	0	0	1	1	7,107799820441869E+000	-4,0165085E-001	-4,0143001E-001	-7,872350313021625E-002	1,000000000000000E+000	3,1884680E-005	40	3,1601976E-005
2	0	0	1	1	7,134399819769897E+000	-3,8832438E-001	-3,8813704E-001	-7,608237835908446E-002	1,000000000000000E+000	2,9827874E-005	40	2,9530389E-005
2	0	0	1	1	7,160999819097924E+000	-3,7503120E-001	-3,7477782E-001	-7,346272566452772E-002	1,000000000000000E+000	2,7841252E-005	40	2,7532200E-005
2	0	0	1	1	7,187599818425952E+000	-3,6173806E-001	-3,6152363E-001	-7,082506242538023E-002	1,000000000000000E+000	2,5924472E-005	40	2,5604933E-005
2	0	0	1	1	7,214399817748927E+000	-3,4834489E-001	-3,4816658E-001	-6,818110590393167E-002	1,000000000000000E+000	2,4063907E-005	40	2,3738383E-005
2	0	0	1	1	7,240999817076954E+000	-3,3505175E-001	-3,3481613E-001	-6,552203056926381E-002	1,000000000000000E+000	2,2287602E-005	40	2,1937833E-005
2	0	0	1	1	7,267599816404982E+000	-3,2172528E-001	-3,2150644E-001	-6,289960397213379E-002	1,000000000000000E+000	2,0581607E-005	40	2,0222627E-005
2	0	0	1	1	7,294199815733009E+000	-3,0843207E-001	-3,0818757E-001	-6,029707277193658E-002	1,000000000000000E+000	1,8945355E-005	40	1,8582808E-005
2	0	0	1	1	7,320999815055984E+000	-2,9503897E-001	-2,9477963E-001	-5,761260109235655E-002	1,000000000000000E+000	1,7367525E-005	40	1,6983022E-005
2	0	0	1	1	7,347599814384012E+000	-2,8174579E-001	-2,8149125E-001	-5,499218932236538E-002	1,000000000000000E+000	1,5871801E-005	40	1,5479820E-005
2	0	0	1	1	7,374199813712039E+000	-2,6845261E-001	-2,6821288E-001	-5,237546661034354E-002	1,000000000000000E+000	1,4445930E-005	40	1,4047775E-005
2	0	0	1	1	7,400799813040067E+000	-2,5512615E-001	-2,5486431E-001	-4,974123984769285E-002	1,000000000000000E+000	1,3089853E-005	40	1,2677267E-005
2	0	0	1	1	7,427599812363042E+000	-2,4173301E-001	-2,4154463E-001	-4,711554561751338E-002	1,000000000000000E+000	1,1794211E-005	40	1,1380507E-005
2	0	0	1	1	7,454199811691069E+000	-2,2843984E-001	-2,2819529E-001	-4,449678510961042E-002	1,000000000000000E+000	1,0578178E-005	40	1,0153957E-005
2	0	0	1	1	7,480799811019097E+000	-2,1514669E-001	-2,1492916E-001	-4,183967807233169E-002	1,000000000000000E+000	9,4319303E-006	40	8,9925670E-006
2	0	0	1	1	7,507599810342072E+000	-2,0175357E-001	-2,0151395E-001	-3,919234401255367E-002	1,000000000000000E+000	8,3481400E-006	40	7,8978037E-006
2	0	0	1	1	7,534199809670099E+000	-1,8842708E-001	-1,8820573E-001	-3,657034152177707E-002	1,000000000000000E+000	7,3425354E-006	40	6,8827480E-006
2	0	0	1	1	7,590799808240263E+000	-1,6014160E-001	-1,5993497E-001	-3,105950001627199E-002	1,000000000000000E+000	5,3753624E-006	41	4,9675000E-006
2	0	0	1	1	7,617399807568290E+000	-1,4684844E-001	-1,4662695E-001	-2,843101894589670E-002	1,000000000000000E+000	4,5860565E-006	41	4,1687535E-006
2	0	0	1	1	7,644199806891265E+000	-1,3345534E-001	-1,3322572E-001	-2,579228861868610E-002	1,000000000000000E+000	3,8614394E-006	41	3,4361963E-006
2	0	0	1	1	7,670799806219293E+000	-1,2012884E-001	-1,1991929E-001	-2,314990628510716E-002	1,000000000000000E+000	3,2126889E-006	41	2,7761205E-006
2	0	0	1	1	7,697399805547320E+000	-1,0683568E-001	-1,0663401E-001	-2,052617127847045E-002	1,000000000000000E+000	2,6338682E-006	41	2,1887881E-006
2	0	0	1	1	7,723999804875348E+000	-9,3542509E-002	-9,3290970E-002	-1,789920624602626E-002	1,000000000000000E+000	2,1249130E-006	41	1,6698343E-006
2	0	0	1	1	7,750799804198323E+000	-8,0149397E-002	-7,9956502E-002	-1,525256638681938E-002	1,000000000000000E+000	1,6826905E-006	41	1,2195419E-006
2	0	0	1	1	7,777399803526350E+000	-6,6845119E-002	-6,6644534E-002	-1,262941741078974E-002	1,000000000000000E+000	1,3139414E-006	41	8,4168164E-007
2	0	0	1	1	7,803999802854378E+000	-5,3529739E-002	-5,3315848E-002	-9,995073978037280E-003	1,000000000000000E+000	1,0151707E-006	41	5,3289585E-007
2	0	0	1	1	7,830599802182405E+000	-4,0236562E-002	-4,0012460E-002	-7,361523069266684E-003	1,000000000000000E+000	7,8632326E-007	41	2,9455265E-007
2	0	0	1	1	7,857399801505380E+000	-2,6843451E-002	-2,6617724E-002	-4,716535469075668E-003	1,000000000000000E+000	6,2663531E-007	41	1,2554344E-007
2	0	0	1	1	7,883999800833408E+000	-1,3550282E-002	-1,3312431E-002	-2,091124381604456E-003	1,000000000000000E+000	5,3818206E-007	41	2,7837949E-008
2	1	0	1	1	7,908899800204381E+000	-1,0951430E-003	-8,5790432E-004	3,674887265280920E-004	1,000000000000000E+000	5,1834513E-007	41	-3,1527017E-010
2	1	0	1	1	7,910999800151330E+000	5,7214929E-005	2,3430548E-004	5,771341675426811E-004	1,000000000000000E+000	5,1942925E-007	41	1,3522569E-010