File: zilien_version_1/2022-04-06 16_17_23 full set_01_02_CVA_DUSB0_C01.mpt
EC-Lab ASCII FILE
Nb header lines : 73

Cyclic Voltammetry Advanced

Run on channel : 1 (SN 5836)
User :
Electrode connection : standard
Ewe ctrl range : min = -10.00 V, max = 5.00 V
Ewe,I filtering : 50 kHz
Safety Limits :
	Do not start on E overload
Channel : Floating
Acquisition started on : 04/06/2022 16:19:01
Technique started on : 04/06/2022 16:19:12
Saved on :
	File : 2022-04-06 16_17_23 full set_01_02_CVA_DUSB0_C01.mpr
	Directory : C:\Users\Spectro Inlets Lab_1\Dropbox (Spectro Inlets)\Development\Data\Kenneth reduced data\2022-04-06 16_17_23 full set\
	Host : 192.168.1.105
Device : SP-200 (SN 0763)
Address : USB
EC-Lab for windows v11.27 (software)
Internet server v11.25 (firmware)
Command interpretor v11.27 (firmware)
Electrode material :
Initial state :
Electrolyte :
Comments :
Cable : standard
Electrode surface area : 0.001 cm²
Characteristic mass : 0.001 g
Equivalent Weight : 0.000 g/eq.
Density : 0.000 g/cm3
Record Ece
Text export
   Mode : Standard
   Time format : Elapsed
Cycle Definition : Charge/Discharge alternance
Ei (V)              0.000
vs.                 Eoc
ti (h:m:s)          0:00:5.0000
dti (s)             1.0000
dE/dt               50.000
dE/dt unit          mV/s
E1 (V)              1.500
vs.                 Ref
t1 (h:m:s)          0:00:0.0000
dt1 (s)             1.0000
Step percent        80
N                   20
E range min (V)     -10.000
E range max (V)     5.000
I Range             100 µA
I Range min         Unset
I Range max         Unset
I Range init        Unset
Bandwidth           1
E2 (V)              0.100
vs.                 Ref
t2 (h:m:s)          0:00:0.0000
dt2 (s)             1.0000
nc cycles           1
nr                  1
Reverse Scan        0
Ef (V)              0.000
vs.                 Eoc
tf (h:m:s)          0:00:0.0000
dtf (s)             0.1000

Number of loops : 1
Loop 0 from point number 0 to 864

mode	ox/red	error	control changes	Ns changes	counter inc.	time/s	control/V	Ewe/V	<I>/mA	cycle number	(Q-Qo)/C	I Range	<Ece>/V	P/W	Ewe-Ece/V
2	0	0	1	0	0	11.0502	0.591118	0.591687	-1.2741e-06	1	0.0000000E+000	41	1.30389	-7.53868e-10	-0.712208
2	1	0	1	0	0	13.0502	0.591118	0.591641	-2.82089e-05	1	-5.80636e-08	41	1.30462	-1.66895e-08	-0.71298
2	1	0	1	0	0	15.0502	0.591118	0.591633	-2.81879e-05	1	-1.14527e-07	41	1.30505	-1.66769e-08	-0.713421
2	0	0	1	0	0	16.119	0.594266	0.594837	0.000333655	1	-1.16399e-07	41	1.29939	1.9847e-07	-0.70455
2	1	0	1	0	0	16.359	0.60626	0.606826	0.000452269	1	3.41956e-09	41	1.29592	2.74449e-07	-0.689094
2	1	0	0	0	0	16.5988	0.618253	0.618826	0.000536393	1	1.45703e-07	41	1.29274	3.31934e-07	-0.673918
2	1	0	0	0	0	16.8387	0.63025	0.630831	0.000629016	1	3.08715e-07	41	1.28923	3.96802e-07	-0.658396
2	1	0	1	0	0	17.0786	0.642241	0.642823	0.000733531	1	4.94934e-07	41	1.28524	4.7153e-07	-0.642416
2	1	0	0	0	0	17.3184	0.654235	0.654786	0.000859556	1	7.08667e-07	41	1.28061	5.62826e-07	-0.625825
2	1	0	0	0	0	17.5583	0.666227	0.666788	0.00100982	1	9.55447e-07	41	1.27521	6.73337e-07	-0.608426
2	1	0	1	0	0	17.7982	0.678222	0.67879	0.00117791	1	1.23992e-06	41	1.26908	7.99554e-07	-0.590293
2	1	0	0	0	0	18.038	0.690216	0.690782	0.0013652	1	1.56664e-06	41	1.2622	9.43053e-07	-0.571423
2	1	0	0	0	0	18.278	0.70221	0.702771	0.00157193	1	1.94042e-06	41	1.25451	1.10471e-06	-0.551738
2	1	0	1	0	0	18.5178	0.714204	0.714765	0.00179646	1	2.36531e-06	41	1.24596	1.28404e-06	-0.53119
2	1	0	1	0	0	18.7577	0.726199	0.72675	0.00203008	1	2.84436e-06	41	1.23673	1.47536e-06	-0.509976
2	1	0	0	0	0	18.9976	0.738191	0.738744	0.00227366	1	3.38078e-06	41	1.22677	1.67965e-06	-0.488026
2	1	0	1	0	0	19.2374	0.750185	0.750725	0.00252073	1	3.97496e-06	41	1.21626	1.89238e-06	-0.465533
2	1	0	1	0	0	19.4773	0.762176	0.762729	0.00277971	1	4.62936e-06	41	1.20507	2.12016e-06	-0.442344
2	1	0	0	0	0	19.7172	0.774173	0.77473	0.0030507	1	5.34674e-06	41	1.19321	2.36347e-06	-0.418478
2	1	0	0	0	0	19.9571	0.786171	0.786728	0.00334461	1	6.13155e-06	41	1.18055	2.6313e-06	-0.393824
2	1	0	1	0	0	20.197	0.79816	0.7987	0.00365167	1	6.98798e-06	41	1.16731	2.91659e-06	-0.368608
2	1	0	0	0	0	20.4368	0.810154	0.810691	0.00400177	1	7.92272e-06	41	1.15304	3.2442e-06	-0.342348
2	1	0	0	0	0	20.6767	0.822148	0.822694	0.00439135	1	8.94562e-06	41	1.13776	3.61274e-06	-0.315066
2	1	0	1	0	0	20.9166	0.834142	0.834694	0.00481549	1	1.00659e-05	41	1.12157	4.01946e-06	-0.286872
2	1	0	0	0	0	21.1564	0.846135	0.846693	0.00527332	1	1.12923e-05	41	1.10452	4.46488e-06	-0.257823
2	1	0	0	0	0	21.3963	0.858125	0.858689	0.00573929	1	1.26294e-05	41	1.0871	4.92826e-06	-0.228407
2	1	0	1	0	0	21.6362	0.870123	0.870686	0.00617858	1	1.4075e-05	41	1.07	5.3796e-06	-0.199319
2	1	0	1	0	0	21.8761	0.882121	0.882717	0.00664345	1	1.56287e-05	41	1.05258	5.86429e-06	-0.16986
2	1	0	0	0	0	22.116	0.894111	0.894702	0.00710396	1	1.72922e-05	41	1.03526	6.35593e-06	-0.140559
2	1	0	1	0	0	22.3558	0.906104	0.906687	0.00755182	1	1.90652e-05	41	1.01827	6.84714e-06	-0.11158
2	1	0	1	0	0	22.5957	0.918097	0.918683	0.00798471	1	2.09429e-05	41	1.00178	7.33542e-06	-0.0830931
2	1	0	0	0	0	22.8356	0.930092	0.930688	0.00840852	1	2.2924e-05	41	0.985587	7.82571e-06	-0.0548989
2	1	0	1	0	0	23.0754	0.942086	0.942697	0.00883375	1	2.50064e-05	41	0.969453	8.32755e-06	-0.0267555
2	1	0	1	0	0	23.3154	0.95408	0.954681	0.00924138	1	2.71907e-05	41	0.953634	8.82257e-06	0.00104707
2	1	0	0	0	0	23.5552	0.966073	0.966668	0.00967845	1	2.94741e-05	41	0.937343	9.35585e-06	0.029325
2	1	0	0	0	0	23.7951	0.97807	0.978662	0.0101202	1	3.18626e-05	41	0.920956	9.90426e-06	0.0577059
2	1	0	1	0	0	24.035	0.990061	0.990654	0.0105547	1	3.43564e-05	41	0.904717	1.04561e-05	0.0859362
2	1	0	0	0	0	24.2748	1.00205	1.00265	0.0110192	1	3.69579e-05	41	0.888088	1.10484e-05	0.114562
2	1	0	0	0	0	24.5147	1.01405	1.01465	0.0114948	1	3.96721e-05	41	0.87134	1.16632e-05	0.143312
2	1	0	1	0	0	24.7546	1.02604	1.02663	0.01197	1	4.25009e-05	41	0.854673	1.22887e-05	0.171953
2	1	0	0	0	0	24.9944	1.03804	1.0386	0.0124423	1	4.54407e-05	41	0.83821	1.29226e-05	0.200392
2	1	0	0	0	0	25.2344	1.05003	1.05061	0.012903	1	4.84967e-05	41	0.822055	1.35561e-05	0.22856
2	1	0	1	0	0	25.4742	1.06202	1.06261	0.0133399	1	5.16579e-05	41	0.806439	1.41751e-05	0.256171
2	1	0	1	0	0	25.7141	1.07402	1.0746	0.0137813	1	5.49251e-05	41	0.790975	1.48094e-05	0.283623
2	1	0	0	0	0	25.954	1.08601	1.08659	0.0142088	1	5.82967e-05	41	0.775848	1.54391e-05	0.310745
2	1	0	1	0	0	26.1938	1.098	1.09859	0.0146458	1	6.17717e-05	41	0.76077	1.60896e-05	0.337817
2	1	0	1	0	0	26.4337	1.11	1.11055	0.0150699	1	6.53507e-05	41	0.746073	1.67358e-05	0.364479
2	1	0	0	0	0	26.6736	1.12199	1.12254	0.0155208	1	6.90357e-05	41	0.73108	1.74227e-05	0.391464
2	1	0	0	0	0	26.9135	1.13399	1.13454	0.0159825	1	7.28297e-05	41	0.716097	1.81328e-05	0.418447
2	1	0	1	0	0	27.1534	1.14598	1.14655	0.0164435	1	7.67338e-05	41	0.701249	1.88533e-05	0.445302
2	1	0	0	0	0	27.3932	1.15797	1.15852	0.016915	1	8.07486e-05	41	0.68639	1.95963e-05	0.472128
2	1	0	0	0	0	27.6331	1.16997	1.17054	0.0173976	1	8.48795e-05	41	0.671441	2.03646e-05	0.499102
2	1	0	1	0	0	27.873	1.18196	1.18252	0.0178831	1	8.91261e-05	41	0.656607	2.11472e-05	0.525918
2	1	0	0	0	0	28.1128	1.19396	1.19454	0.0183833	1	9.34901e-05	41	0.641708	2.19597e-05	0.552835
2	1	0	0	0	0	28.3527	1.20594	1.20653	0.0188822	1	9.79749e-05	41	0.626901	2.27819e-05	0.579626
2	1	0	1	0	0	28.5926	1.21794	1.21852	0.0193861	1	0.000102581	41	0.6121	2.36224e-05	0.606421
2	1	0	1	0	0	28.8325	1.22994	1.23052	0.0199062	1	0.000107309	41	0.597234	2.44951e-05	0.633291
2	1	0	0	0	0	29.0724	1.24193	1.24254	0.0204242	1	0.000112162	41	0.582499	2.53779e-05	0.660039
2	1	0	1	0	0	29.3122	1.25392	1.25454	0.0209432	1	0.000117137	41	0.567883	2.6274e-05	0.686653
2	1	0	1	0	0	29.5521	1.26592	1.2665	0.0214602	1	0.000122239	41	0.553409	2.71793e-05	0.713087
2	1	0	0	0	0	29.792	1.27791	1.27849	0.0219839	1	0.000127465	41	0.53893	2.81062e-05	0.739559
2	1	0	1	0	0	30.0318	1.28991	1.29048	0.0225173	1	0.000132817	41	0.524453	2.90581e-05	0.76603
2	1	0	1	0	0	30.2718	1.3019	1.3025	0.0230454	1	0.0001383	41	0.510151	3.00166e-05	0.792348
2	1	0	0	0	0	30.5116	1.31389	1.31449	0.0235731	1	0.000143906	41	0.495958	3.09866e-05	0.818532
2	1	0	0	0	0	30.7515	1.32589	1.32649	0.0241008	1	0.00014964	41	0.48189	3.19695e-05	0.844603
2	1	0	1	0	0	30.9914	1.33788	1.33847	0.0246064	1	0.000155499	41	0.468329	3.29351e-05	0.870145
2	1	0	0	0	0	31.2312	1.34987	1.35045	0.0251206	1	0.000161477	41	0.454744	3.39241e-05	0.895707
2	1	0	0	0	0	31.4711	1.36187	1.36246	0.0256282	1	0.00016758	41	0.441382	3.49175e-05	0.921081
2	1	0	1	0	0	31.711	1.37386	1.37446	0.0261218	1	0.000173804	41	0.428358	3.59033e-05	0.9461
2	1	0	0	0	0	31.9508	1.38586	1.38646	0.0266194	1	0.000180143	41	0.415439	3.69067e-05	0.97102
2	1	0	0	0	0	32.1908	1.39785	1.39845	0.0271096	1	0.000186606	41	0.402701	3.79116e-05	0.995752
2	1	0	1	0	0	32.4306	1.40984	1.41044	0.0276022	1	0.000193181	41	0.39009	3.89311e-05	1.02035
2	1	0	1	0	0	32.6705	1.42184	1.42241	0.0280912	1	0.000199876	41	0.37768	3.99573e-05	1.04473
2	1	0	0	0	0	32.9104	1.43383	1.43441	0.0286142	1	0.000206694	41	0.364834	4.10445e-05	1.06958
2	1	0	1	0	0	33.1502	1.44582	1.44642	0.0291552	1	0.000213636	41	0.351822	4.21707e-05	1.0946
2	1	0	1	0	0	33.3901	1.45781	1.4584	0.0297301	1	0.000220714	41	0.338354	4.33584e-05	1.12005
2	1	0	0	0	0	33.63	1.46981	1.47042	0.0303443	1	0.000227936	41	0.324409	4.46188e-05	1.14601
2	1	0	0	0	0	33.8699	1.48181	1.48242	0.0310169	1	0.000235311	41	0.309599	4.59802e-05	1.17283
2	1	0	1	0	0	34.1098	1.4938	1.49444	0.0317532	1	0.000242855	41	0.293916	4.74531e-05	1.20052
2	1	0	1	0	0	34.2312	1.49995	1.50058	0.0315407	1	0.000246738	41	0.29514	4.73292e-05	1.20544
2	1	0	1	0	0	34.414	1.4908	1.49139	0.0235297	1	0.000251569	41	0.421487	3.5092e-05	1.0699
2	1	0	1	0	0	34.6539	1.47881	1.47937	0.0175233	1	0.000256419	41	0.518544	2.59234e-05	0.960826
2	1	0	0	0	0	34.8938	1.46681	1.46739	0.0136101	1	0.000260104	41	0.583004	1.99712e-05	0.884383
2	1	0	1	0	0	35.1336	1.45482	1.45538	0.01086	1	0.000263002	41	0.629177	1.58055e-05	0.826204
2	1	0	1	0	0	35.3735	1.44283	1.44339	0.00883058	1	0.000265335	41	0.66396	1.2746e-05	0.779429
2	1	0	0	0	0	35.6134	1.43083	1.43138	0.00728823	1	0.000267243	41	0.691011	1.04323e-05	0.740374
2	1	0	0	0	0	35.8533	1.41883	1.4194	0.0060787	1	0.000268825	41	0.712722	8.62812e-06	0.70668
2	1	0	1	0	0	36.0932	1.40684	1.40743	0.00511057	1	0.000270147	41	0.730536	7.19278e-06	0.676897
2	1	0	0	0	0	36.333	1.39485	1.39544	0.0043195	1	0.000271259	41	0.7455	6.02761e-06	0.649941
2	1	0	0	0	0	36.5729	1.38286	1.38344	0.00366483	1	0.000272199	41	0.758237	5.07009e-06	0.625208
2	1	0	1	0	0	36.8128	1.37086	1.37145	0.00311564	1	0.000272995	41	0.769265	4.27293e-06	0.602181
2	1	0	0	0	0	37.0526	1.35887	1.35945	0.00264527	1	0.000273669	41	0.778973	3.59613e-06	0.580482
2	1	0	0	0	0	37.2925	1.34688	1.34746	0.00224376	1	0.00027424	41	0.787581	3.02337e-06	0.559876
2	1	0	1	0	0	37.5324	1.33488	1.33548	0.00189807	1	0.000274721	41	0.795212	2.53483e-06	0.540266
2	1	0	1	0	0	37.7723	1.32288	1.32348	0.00158461	1	0.000275123	41	0.80236	2.0972e-06	0.521119
2	1	0	0	0	0	38.0122	1.31089	1.31148	0.00131242	1	0.000275456	41	0.808807	1.7212e-06	0.502671
2	1	0	1	0	0	38.252	1.2989	1.29949	0.0010644	1	0.000275726	41	0.814828	1.38318e-06	0.484658
2	1	0	1	0	0	38.4919	1.28691	1.28749	0.000842574	1	0.000275941	41	0.820413	1.08481e-06	0.467079
2	1	0	0	0	0	38.7318	1.27491	1.27549	0.000641966	1	0.000276104	41	0.825681	8.18823e-07	0.449812
2	1	0	1	0	0	38.9716	1.26292	1.26349	0.000459717	1	0.000276222	41	0.830667	5.8085e-07	0.432827
2	1	0	1	0	0	39.2116	1.25093	1.25152	0.000278818	1	0.000276296	41	0.835561	3.48947e-07	0.415959
2	1	0	0	0	0	39.4514	1.23893	1.23952	0.000113674	1	0.000276329	41	0.840247	1.40901e-07	0.399271
2	1	0	0	0	0	39.6913	1.22694	1.22752	-4.53787e-05	1	0.000276324	41	0.844883	-5.57035e-08	0.382642
2	1	0	1	0	0	39.9312	1.21494	1.21552	-0.000192513	1	0.000276281	41	0.84932	-2.34003e-07	0.366199
2	1	0	0	0	0	40.171	1.20295	1.20353	-0.00034565	1	0.000276203	41	0.853857	-4.15999e-07	0.349671
2	1	0	0	0	0	40.4109	1.19096	1.19151	-0.00049092	1	0.000276089	41	0.858347	-5.84938e-07	0.333167
2	1	0	1	0	0	40.6508	1.17896	1.1795	-0.000634263	1	0.000275941	41	0.862758	-7.48116e-07	0.316747
2	1	0	0	0	0	40.8906	1.16697	1.16752	-0.00077872	1	0.000275757	41	0.867316	-9.09168e-07	0.3002
2	0	0	0	0	0	41.1306	1.15498	1.15551	-0.000926657	1	0.000275539	41	0.871961	-1.07076e-06	0.283547
2	0	0	1	0	0	41.3704	1.14298	1.14351	-0.00107748	1	0.000275285	41	0.876711	-1.23211e-06	0.2668
2	0	0	1	0	0	41.6103	1.13099	1.13151	-0.00123735	1	0.000274994	41	0.881713	-1.40007e-06	0.249798
2	0	0	0	0	0	41.8502	1.11899	1.11952	-0.0013948	1	0.000274664	41	0.886751	-1.56151e-06	0.232769
2	0	0	1	0	0	42.09	1.107	1.10753	-0.001562	1	0.000274296	41	0.892039	-1.72996e-06	0.215491
2	0	0	1	0	0	42.3299	1.09501	1.09555	-0.00174433	1	0.000273885	41	0.89767	-1.911e-06	0.197879
2	0	0	0	0	0	42.5698	1.08301	1.08355	-0.00193633	1	0.00027343	41	0.903574	-2.09811e-06	0.179974
2	0	0	0	0	0	42.8097	1.07101	1.07157	-0.00214554	1	0.000272926	41	0.909923	-2.2991e-06	0.161647
2	0	0	1	0	0	43.0496	1.05903	1.05958	-0.00236531	1	0.000272372	41	0.916574	-2.50623e-06	0.143005
2	0	0	0	0	0	43.2894	1.04703	1.04758	-0.002608	1	0.000271762	41	0.923739	-2.73209e-06	0.123841
2	0	0	0	0	0	43.5293	1.03504	1.03558	-0.00287288	1	0.000271091	41	0.931478	-2.97509e-06	0.104098
2	0	0	1	0	0	43.7692	1.02304	1.02361	-0.00315293	1	0.000270355	41	0.93964	-3.22738e-06	0.0839725
2	0	0	0	0	0	44.009	1.01105	1.01161	-0.00347404	1	0.000269547	41	0.948704	-3.51439e-06	0.0629098
2	0	0	0	0	0	44.249	0.999056	0.999622	-0.00381824	1	0.000268659	41	0.958408	-3.8168e-06	0.0412146
2	0	0	1	0	0	44.4888	0.987062	0.987621	-0.00419938	1	0.000267684	41	0.96896	-4.1474e-06	0.018661
2	0	0	1	0	0	44.7287	0.975066	0.975625	-0.00463162	1	0.000266611	41	0.980646	-4.51873e-06	-0.00502157
2	0	0	0	0	0	44.9686	0.963075	0.963621	-0.0051084	1	0.000265429	41	0.993352	-4.92257e-06	-0.0297304
2	0	0	1	0	0	45.2084	0.951081	0.95165	-0.00563145	1	0.000264127	41	1.00717	-5.35917e-06	-0.0555161
2	0	0	1	0	0	45.4483	0.939088	0.939651	-0.00625102	1	0.000262688	41	1.02291	-5.87378e-06	-0.0832621
2	0	0	0	0	0	45.6882	0.927094	0.927665	-0.00694117	1	0.000261092	41	1.04024	-6.43908e-06	-0.112571
2	0	0	1	0	0	45.928	0.9151	0.915655	-0.00774414	1	0.000259317	41	1.05983	-7.09096e-06	-0.144173
2	0	0	1	0	0	46.168	0.903106	0.903657	-0.00865532	1	0.000257336	41	1.0817	-7.82144e-06	-0.178046
2	0	0	0	0	0	46.4078	0.891112	0.891669	-0.0097184	1	0.000255119	41	1.10661	-8.6656e-06	-0.214939
2	0	0	0	0	0	46.6477	0.879117	0.879649	-0.0109637	1	0.000252625	41	1.13508	-9.64417e-06	-0.255435
2	0	0	1	0	0	46.8876	0.867124	0.867651	-0.0124106	1	0.000249807	41	1.16751	-1.07681e-05	-0.299863
2	0	0	0	0	0	47.1274	0.855131	0.85564	-0.0140973	1	0.000246615	41	1.20467	-1.20622e-05	-0.349033
2	0	0	0	0	0	47.3673	0.84314	0.843641	-0.0160631	1	0.000242983	41	1.24718	-1.35515e-05	-0.40354
2	0	0	1	0	0	47.6072	0.831143	0.831658	-0.0183091	1	0.000238844	41	1.29516	-1.52269e-05	-0.463499
2	0	0	0	0	0	47.847	0.819149	0.81966	-0.0208454	1	0.000234134	41	1.34888	-1.70861e-05	-0.529216
2	0	0	0	0	0	48.087	0.807156	0.807657	-0.0235849	1	0.000228783	41	1.40698	-1.90485e-05	-0.599324
2	0	0	1	0	0	48.3268	0.795162	0.795699	-0.0263589	1	0.000222773	41	1.46671	-2.09737e-05	-0.671014
2	0	0	1	0	0	48.5667	0.783167	0.78369	-0.0289453	1	0.000216113	41	1.52456	-2.26842e-05	-0.74087
2	0	0	0	0	0	48.8066	0.771174	0.771704	-0.0309236	1	0.000208899	41	1.57356	-2.38639e-05	-0.801853
2	0	0	1	0	0	49.0464	0.75918	0.759693	-0.0318879	1	0.000201334	41	1.60681	-2.4225e-05	-0.847122
2	0	0	1	0	0	49.2863	0.74719	0.747701	-0.0315254	1	0.000193694	41	1.61886	-2.35716e-05	-0.871156
2	0	0	0	0	0	49.5262	0.735193	0.735713	-0.0298515	1	0.000186303	41	1.60921	-2.19621e-05	-0.873499
2	0	0	0	0	0	49.7661	0.723194	0.723724	-0.0271331	1	0.000179449	41	1.58146	-1.96369e-05	-0.857731
2	0	0	1	0	0	50.006	0.711205	0.711737	-0.0238404	1	0.000173326	41	1.54253	-1.69681e-05	-0.830797
2	0	0	0	0	0	50.2458	0.699211	0.699743	-0.0204642	1	0.000168011	41	1.50015	-1.43197e-05	-0.800407
2	0	0	0	0	0	50.4857	0.687218	0.687748	-0.0173043	1	0.00016348	41	1.45911	-1.1901e-05	-0.771362
2	0	0	1	0	0	50.7256	0.675224	0.675752	-0.0145316	1	0.000159661	41	1.42234	-9.8198e-06	-0.746586
2	0	0	0	0	0	50.9654	0.66323	0.663756	-0.0122014	1	0.000156455	41	1.39104	-8.09877e-06	-0.727289
2	0	0	0	0	0	51.2054	0.651236	0.651766	-0.0102713	1	0.000153754	41	1.36489	-6.69451e-06	-0.713122
2	0	0	1	0	0	51.4452	0.639243	0.639783	-0.00869832	1	0.000151474	41	1.34335	-5.56503e-06	-0.703563
2	0	0	1	0	0	51.6851	0.627246	0.62779	-0.00743157	1	0.000149532	41	1.32593	-4.66547e-06	-0.698142
2	0	0	0	0	0	51.925	0.615255	0.615795	-0.0063888	1	0.000147865	41	1.3115	-3.93419e-06	-0.6957
2	0	0	1	0	0	52.1648	0.603261	0.603796	-0.00553986	1	0.000146423	41	1.29965	-3.34494e-06	-0.695856
2	0	0	1	0	0	52.4047	0.591269	0.591812	-0.00484727	1	0.000145164	41	1.28989	-2.86867e-06	-0.698082
2	0	0	0	0	0	52.6446	0.579274	0.579807	-0.00426953	1	0.000144058	41	1.28168	-2.4755e-06	-0.701871
2	0	0	1	0	0	52.8844	0.56728	0.567782	-0.00379383	1	0.000143077	41	1.27485	-2.15407e-06	-0.707064
2	0	0	1	0	0	53.1244	0.555286	0.555775	-0.00339511	1	0.000142199	41	1.2691	-1.88692e-06	-0.713321
2	0	0	0	0	0	53.3642	0.543292	0.543796	-0.00306746	1	0.000141409	41	1.26436	-1.66807e-06	-0.720565
2	0	0	0	0	0	53.6041	0.531296	0.531783	-0.00280436	1	0.000140689	41	1.26053	-1.49131e-06	-0.728751
2	0	0	1	0	0	53.844	0.519305	0.519784	-0.00257791	1	0.000140026	41	1.25727	-1.33996e-06	-0.737482
2	0	0	0	0	0	54.0838	0.507311	0.507785	-0.00240202	1	0.000139412	41	1.2548	-1.21971e-06	-0.74701
2	0	0	0	0	0	54.3237	0.49532	0.495814	-0.00225394	1	0.000138837	41	1.25275	-1.11753e-06	-0.756939
2	0	0	1	0	0	54.5636	0.483323	0.483834	-0.00213899	1	0.000138292	41	1.25123	-1.03492e-06	-0.767391
2	0	0	0	0	0	54.8034	0.47133	0.471819	-0.00204963	1	0.000137773	41	1.25014	-9.67055e-07	-0.778325
2	0	0	0	0	0	55.0434	0.459336	0.459847	-0.00197947	1	0.000137272	41	1.24941	-9.10252e-07	-0.789559
2	0	0	1	0	0	55.2832	0.447342	0.447852	-0.00193386	1	0.000136785	41	1.2491	-8.66082e-07	-0.801252
2	0	0	1	0	0	55.5231	0.435348	0.435864	-0.00191055	1	0.000136306	41	1.24922	-8.32739e-07	-0.813359
2	0	0	0	0	0	55.763	0.423354	0.423862	-0.00190795	1	0.000135832	41	1.2498	-8.08707e-07	-0.825939
2	0	0	1	0	0	56.0028	0.411361	0.41188	-0.00193513	1	0.000135355	41	1.25093	-7.97041e-07	-0.83905
2	0	0	1	0	0	56.2427	0.39937	0.399886	-0.00199985	1	0.000134867	41	1.25284	-7.99713e-07	-0.852954
2	0	0	0	0	0	56.4826	0.387373	0.387882	-0.00210392	1	0.000134361	41	1.25556	-8.16073e-07	-0.867676
2	0	0	0	0	0	56.7225	0.375375	0.375878	-0.00226689	1	0.000133823	41	1.25948	-8.52075e-07	-0.883605
2	0	0	1	0	0	56.9624	0.363385	0.36389	-0.0025006	1	0.000133238	41	1.2649	-9.09943e-07	-0.90101
2	0	0	0	0	0	57.2022	0.351392	0.3519	-0.00282406	1	0.000132587	41	1.27219	-9.93787e-07	-0.920292
2	0	0	0	0	0	57.4421	0.339398	0.339896	-0.00325262	1	0.000131846	41	1.28176	-1.10556e-06	-0.941861
2	0	0	1	0	0	57.682	0.327404	0.327921	-0.00381208	1	0.000130987	41	1.29413	-1.25006e-06	-0.966212
2	0	0	0	0	0	57.9218	0.31541	0.315923	-0.00449957	1	0.000129978	41	1.3094	-1.42151e-06	-0.993473
2	0	0	0	0	0	58.1617	0.303421	0.303936	-0.00534475	1	0.000128785	41	1.32814	-1.62446e-06	-1.0242
2	0	0	1	0	0	58.4016	0.291423	0.291932	-0.00636221	1	0.000127372	41	1.35061	-1.85733e-06	-1.05868
2	0	0	1	0	0	58.6415	0.279425	0.279936	-0.00753996	1	0.000125693	41	1.37669	-2.11071e-06	-1.09676
2	0	0	0	0	0	58.8814	0.267435	0.267935	-0.00882107	1	0.000123719	41	1.40546	-2.36347e-06	-1.13753
2	0	0	1	0	0	59.1212	0.255441	0.255925	-0.0101764	1	0.000121424	41	1.43632	-2.6044e-06	-1.18039
2	0	0	1	0	0	59.3611	0.24345	0.243936	-0.0114687	1	0.000118814	41	1.46694	-2.79763e-06	-1.22301
2	0	0	0	0	0	59.601	0.231454	0.231929	-0.0123639	1	0.000115936	41	1.49167	-2.86755e-06	-1.25974
2	0	0	1	0	0	59.8408	0.21946	0.219934	-0.0128818	1	0.00011289	41	1.51017	-2.83314e-06	-1.29024
2	0	0	1	0	0	60.0808	0.207466	0.207936	-0.0132283	1	0.000109744	41	1.5257	-2.75064e-06	-1.31776
2	0	0	0	0	0	60.3206	0.195472	0.19594	-0.0137079	1	0.000106507	41	1.54331	-2.68594e-06	-1.34737
2	0	0	0	0	0	60.5605	0.183477	0.183977	-0.0144423	1	0.000103122	41	1.56541	-2.65705e-06	-1.38143
2	0	0	1	0	0	60.8004	0.171485	0.171991	-0.0156751	1	9.95005e-05	41	1.59635	-2.69597e-06	-1.42436
2	0	0	0	0	0	61.0402	0.159491	0.159985	-0.0173641	1	9.55259e-05	41	1.63592	-2.778e-06	-1.47594
2	0	0	0	0	0	61.2801	0.1475	0.147982	-0.019566	1	9.10902e-05	41	1.68528	-2.89542e-06	-1.53729
2	0	0	1	0	0	61.52	0.135503	0.136006	-0.0221065	1	8.6079e-05	41	1.74204	-3.00661e-06	-1.60603
2	0	0	0	0	0	61.7598	0.12351	0.123998	-0.0248246	1	8.04318e-05	41	1.80354	-3.0782e-06	-1.67954
2	0	0	0	0	0	61.9998	0.111516	0.112014	-0.0271063	1	7.41736e-05	41	1.85965	-3.03629e-06	-1.74764
2	0	0	1	0	0	62.2036	0.101321	0.10184	-0.0285338	1	6.84908e-05	41	1.89981	-2.90589e-06	-1.79797
2	0	0	1	0	1	62.2904	0.10312	0.103575	0.00468598	1	6.79842e-05	41	1.37922	4.85353e-07	-1.27565
2	1	0	0	0	1	62.5302	0.115114	0.115651	0.0127286	1	7.06441e-05	41	1.20501	1.47207e-06	-1.08936
2	1	0	0	0	1	62.7701	0.127109	0.12765	0.0142151	1	7.39381e-05	41	1.14477	1.81455e-06	-1.01712
2	1	0	1	0	1	63.01	0.139102	0.139661	0.0140558	1	7.73482e-05	41	1.11315	1.96305e-06	-0.973488
2	1	0	0	0	1	63.2498	0.151095	0.151648	0.0133296	1	8.06464e-05	41	1.09383	2.02141e-06	-0.94218
2	1	0	0	0	1	63.4897	0.163086	0.163639	0.0124362	1	8.37437e-05	41	1.08071	2.03505e-06	-0.917074
2	1	0	1	0	1	63.7296	0.175083	0.17563	0.0116136	1	8.66339e-05	41	1.06966	2.0397e-06	-0.894032
2	1	0	1	0	1	63.9695	0.187082	0.187607	0.0110278	1	8.93551e-05	41	1.05744	2.0689e-06	-0.869832
2	1	0	0	0	1	64.2094	0.199071	0.199581	0.0107873	1	9.19811e-05	41	1.04149	2.15294e-06	-0.841906
2	1	0	1	0	1	64.4492	0.211064	0.211598	0.0107521	1	9.45779e-05	41	1.02341	2.27513e-06	-0.811812
2	1	0	1	0	1	64.6891	0.223059	0.223575	0.0109311	1	9.71881e-05	41	1.00269	2.44392e-06	-0.779115
2	1	0	0	0	1	64.929	0.235052	0.235571	0.0110566	1	9.98379e-05	41	0.983461	2.60462e-06	-0.747891
2	1	0	1	0	1	65.1688	0.247046	0.247591	0.0109467	1	0.000102497	41	0.968878	2.7103e-06	-0.721287
2	1	0	1	0	1	65.4087	0.259035	0.259583	0.010497	1	0.000105088	41	0.961153	2.72484e-06	-0.70157
2	1	0	0	0	1	65.6486	0.271033	0.271596	0.00977213	1	0.000107534	41	0.959567	2.65407e-06	-0.687971
2	1	0	0	0	1	65.8885	0.28303	0.2836	0.0088979	1	0.000109782	41	0.962153	2.52344e-06	-0.678553
2	1	0	1	0	1	66.1284	0.295021	0.295587	0.00788641	1	0.000111803	41	0.968634	2.33112e-06	-0.673047
2	1	0	0	0	1	66.3682	0.307015	0.30759	0.00683866	1	0.00011358	41	0.9774	2.10351e-06	-0.669809
2	1	0	0	0	1	66.6081	0.319007	0.319588	0.00580723	1	0.000115104	41	0.987498	1.85592e-06	-0.66791
2	1	0	1	0	1	66.848	0.331002	0.331585	0.00483279	1	0.000116386	41	0.998063	1.60248e-06	-0.666479
2	1	0	0	0	1	67.0878	0.342996	0.343542	0.00400482	1	0.00011745	41	1.00752	1.37582e-06	-0.663974
2	1	0	0	0	1	67.3278	0.35499	0.355535	0.00331774	1	0.000118336	41	1.01563	1.17957e-06	-0.660093
2	1	0	1	0	1	67.5676	0.366984	0.367561	0.00279273	1	0.000119078	41	1.02188	1.0265e-06	-0.654316
2	1	0	1	0	1	67.8075	0.378979	0.379553	0.00240738	1	0.000119712	41	1.02636	9.13727e-07	-0.64681
2	1	0	0	0	1	68.0474	0.390971	0.391528	0.00211853	1	0.000120265	41	1.02961	8.29465e-07	-0.638081
2	1	0	1	0	1	68.2872	0.402965	0.403547	0.00191748	1	0.000120762	41	1.03163	7.73795e-07	-0.628085
2	1	0	1	0	1	68.5271	0.414957	0.415513	0.00177456	1	0.000121219	41	1.03282	7.37351e-07	-0.617311
2	1	0	0	0	1	68.767	0.426952	0.427497	0.00167692	1	0.000121648	41	1.03332	7.1688e-07	-0.605825
2	1	0	1	0	1	69.0068	0.438946	0.439498	0.00161126	1	0.000122058	41	1.03334	7.08146e-07	-0.593842
2	1	0	1	0	1	69.2468	0.45094	0.451489	0.00156663	1	0.000122457	41	1.03297	7.07314e-07	-0.581482
2	1	0	0	0	1	69.4866	0.462934	0.463487	0.00154057	1	0.000122847	41	1.03232	7.14034e-07	-0.56883
2	1	0	0	0	1	69.7265	0.474929	0.475482	0.00152813	1	0.000123232	41	1.03138	7.266e-07	-0.555902
2	1	0	1	0	1	69.9664	0.486921	0.487479	0.00151882	1	0.000123615	41	1.03038	7.40395e-07	-0.542899
2	1	0	0	0	1	70.2062	0.498915	0.49945	0.00151698	1	0.000123996	41	1.02924	7.57655e-07	-0.529791
2	1	0	0	0	1	70.4461	0.510905	0.511434	0.00152272	1	0.000124378	41	1.02793	7.78771e-07	-0.516498
2	1	0	1	0	1	70.686	0.522903	0.523434	0.0015306	1	0.000124761	41	1.02655	8.01166e-07	-0.503121
2	1	0	1	0	1	70.9259	0.534901	0.535433	0.00154533	1	0.000125147	41	1.02503	8.27421e-07	-0.4896
2	1	0	0	0	1	71.1658	0.54689	0.547438	0.00156027	1	0.000125537	41	1.02345	8.54149e-07	-0.476014
2	1	0	1	0	1	71.4056	0.558884	0.559427	0.00158301	1	0.000125932	41	1.02173	8.85579e-07	-0.462299
2	1	0	1	0	1	71.6455	0.570878	0.571432	0.00161503	1	0.000126332	41	1.01983	9.22877e-07	-0.448399
2	1	0	0	0	1	71.8854	0.582872	0.583435	0.00165055	1	0.000126741	41	1.01783	9.62989e-07	-0.434393
2	1	0	1	0	1	72.0562	0.591418	0.592012	0.00170304	2	0.000127037	41	1.01593	1.00822e-06	-0.423914
2	1	0	1	0	1	72.2392	0.600563	0.601129	0.00171738	2	0.000127361	41	1.01452	1.03236e-06	-0.413389
2	1	0	0	0	1	72.479	0.612556	0.613133	0.00177652	2	0.000127797	41	1.01196	1.08924e-06	-0.398831
2	1	0	0	0	1	72.719	0.62455	0.625135	0.00184375	2	0.000128248	41	1.00921	1.15259e-06	-0.384075
2	1	0	1	0	1	72.9588	0.636544	0.637132	0.00192714	2	0.000128717	41	1.00609	1.22784e-06	-0.368954
2	1	0	1	0	1	73.1987	0.648539	0.649092	0.00201678	2	0.000129206	41	1.00281	1.30908e-06	-0.353717
2	1	0	0	0	1	73.4386	0.660531	0.661106	0.00212229	2	0.000129719	41	0.999131	1.40306e-06	-0.338025
2	1	0	1	0	1	73.6784	0.672525	0.6731	0.00223553	2	0.000130258	41	0.995214	1.50474e-06	-0.322114
2	1	0	1	0	1	73.9183	0.684515	0.685088	0.00235829	2	0.000130825	41	0.991028	1.61563e-06	-0.30594
2	1	0	0	0	1	74.1582	0.696513	0.697085	0.00248713	2	0.000131422	41	0.986639	1.73374e-06	-0.289553
2	1	0	0	0	1	74.3981	0.70851	0.709088	0.00262799	2	0.000132051	41	0.981938	1.86348e-06	-0.27285
2	1	0	1	0	1	74.638	0.7205	0.72108	0.00277171	2	0.000132714	41	0.977026	1.99863e-06	-0.255945
2	1	0	0	0	1	74.8778	0.732494	0.733061	0.0029351	2	0.000133413	41	0.971734	2.15161e-06	-0.238673
2	1	0	0	0	1	75.1177	0.744488	0.745062	0.00310679	2	0.000134153	41	0.966132	2.31475e-06	-0.221071
2	1	0	1	0	1	75.3576	0.756482	0.757059	0.00328927	2	0.000134934	41	0.960219	2.49017e-06	-0.20316
2	1	0	0	0	1	75.5974	0.768476	0.769052	0.00349781	2	0.000135763	41	0.953743	2.69e-06	-0.184691
2	1	0	0	0	1	75.8374	0.780469	0.781031	0.00374157	2	0.000136645	41	0.946588	2.92228e-06	-0.165557
2	1	0	1	0	1	76.0772	0.792463	0.79304	0.00401067	2	0.000137589	41	0.938795	3.18062e-06	-0.145755
2	1	0	1	0	1	76.3171	0.80446	0.80502	0.00432529	2	0.000138602	41	0.93011	3.48194e-06	-0.12509
2	1	0	0	0	1	76.557	0.816451	0.817012	0.00468664	2	0.000139697	41	0.920405	3.82904e-06	-0.103393
2	1	0	1	0	1	76.7968	0.828445	0.829004	0.00509116	2	0.000140885	41	0.909792	4.22059e-06	-0.0807879
2	1	0	1	0	1	77.0367	0.840437	0.840997	0.00553171	2	0.000142173	41	0.898325	4.65216e-06	-0.057328
2	1	0	0	0	1	77.2766	0.852432	0.852987	0.0059818	2	0.000143568	41	0.886423	5.1024e-06	-0.0334361
2	1	0	1	0	1	77.5164	0.864426	0.864986	0.00644549	2	0.000145073	41	0.874091	5.57526e-06	-0.00910413
2	1	0	1	0	1	77.7564	0.87642	0.876992	0.00691931	2	0.00014669	41	0.861399	6.06818e-06	0.0155929
2	1	0	0	0	1	77.9962	0.888413	0.888993	0.00739085	2	0.00014842	41	0.848582	6.57041e-06	0.0404115
2	1	0	0	0	1	78.2361	0.900409	0.901009	0.00787784	2	0.000150265	41	0.835386	7.098e-06	0.0656229
2	1	0	1	0	1	78.476	0.912401	0.912996	0.00832609	2	0.000152223	41	0.822675	7.60169e-06	0.0903205
2	1	0	0	0	1	78.7158	0.924395	0.924999	0.00877611	2	0.00015429	41	0.809952	8.1179e-06	0.115047
2	1	0	0	0	1	78.9557	0.936386	0.937	0.00921319	2	0.000156461	41	0.797331	8.63276e-06	0.139669
2	1	0	1	0	1	79.1956	0.948382	0.948992	0.00961829	2	0.000158734	41	0.785195	9.12768e-06	0.163797
2	1	0	0	0	1	79.4354	0.960376	0.96096	0.010013	2	0.0001611	41	0.773279	9.62211e-06	0.18768
2	1	0	0	0	1	79.6754	0.97237	0.972956	0.0104009	2	0.000163563	41	0.761433	1.01196e-05	0.211523
2	1	0	1	0	1	79.9152	0.984364	0.984964	0.0107832	2	0.000166118	41	0.74973	1.06211e-05	0.235234
2	1	0	1	0	1	80.1551	0.996359	0.996959	0.0111788	2	0.000168765	41	0.737819	1.11448e-05	0.259139
2	1	0	0	0	1	80.395	1.00835	1.00893	0.0115504	2	0.000171505	41	0.726288	1.16536e-05	0.282646
2	1	0	1	0	1	80.6348	1.02035	1.02093	0.0119382	2	0.000174336	41	0.714563	1.21881e-05	0.306367
2	1	0	1	0	1	80.8747	1.03233	1.0329	0.0122841	2	0.000177257	41	0.703593	1.26882e-05	0.329306
2	1	0	0	0	1	81.1146	1.04433	1.0449	0.0126346	2	0.000180261	41	0.692578	1.32018e-05	0.352321
2	1	0	0	0	1	81.3545	1.05633	1.0569	0.0129456	2	0.000183344	41	0.682284	1.36822e-05	0.374615
2	1	0	1	0	1	81.5944	1.06832	1.0689	0.0132281	2	0.000186496	41	0.672558	1.41394e-05	0.396337
2	1	0	0	0	1	81.8342	1.08031	1.08089	0.0135148	2	0.000189717	41	0.662869	1.46079e-05	0.418016
2	1	0	0	0	1	82.0741	1.09231	1.09288	0.0138082	2	0.000193008	41	0.653179	1.50906e-05	0.439697
2	1	0	1	0	1	82.314	1.1043	1.10487	0.0140979	2	0.000196369	41	0.643631	1.55763e-05	0.461241
2	1	0	0	0	1	82.5538	1.1163	1.11684	0.0143945	2	0.000199797	41	0.634119	1.60763e-05	0.482718
2	1	0	0	0	1	82.7938	1.12829	1.12884	0.014707	2	0.000203303	41	0.624428	1.66019e-05	0.504412
2	1	0	1	0	1	83.0336	1.14028	1.14083	0.0150204	2	0.000206881	41	0.614813	1.71358e-05	0.52602
2	1	0	1	0	1	83.2735	1.15228	1.15284	0.0153412	2	0.000210538	41	0.605182	1.7686e-05	0.547657
2	1	0	0	0	1	83.5134	1.16427	1.16484	0.0156705	2	0.000214271	41	0.595532	1.82537e-05	0.569308
2	1	0	1	0	1	83.7532	1.17626	1.17683	0.015999	2	0.000218082	41	0.586015	1.8828e-05	0.59081
2	1	0	1	0	1	83.9931	1.18826	1.18884	0.0163393	2	0.000221975	41	0.576441	1.94248e-05	0.612397
2	1	0	0	0	1	84.233	1.20025	1.20083	0.0166665	2	0.000225948	41	0.567148	2.00137e-05	0.633683
2	1	0	1	0	1	84.4728	1.21225	1.21283	0.0170122	2	0.000230001	41	0.557688	2.06329e-05	0.655146
2	1	0	1	0	1	84.7128	1.22424	1.22482	0.0173534	2	0.000234138	41	0.548421	2.12547e-05	0.676396
2	1	0	0	0	1	84.9526	1.23623	1.2368	0.0177024	2	0.000238356	41	0.539109	2.18943e-05	0.697691
2	1	0	0	0	1	85.1925	1.24823	1.24884	0.0180555	2	0.00024266	41	0.529861	2.25483e-05	0.718977
2	1	0	1	0	1	85.4324	1.26022	1.26081	0.0183914	2	0.000247046	41	0.521002	2.3188e-05	0.739806
2	1	0	0	0	1	85.6722	1.27221	1.27279	0.0187423	2	0.000251512	41	0.512054	2.3855e-05	0.760736
2	1	0	0	0	1	85.9121	1.28421	1.2848	0.0190919	2	0.000256064	41	0.503236	2.45294e-05	0.781568
2	1	0	1	0	1	86.152	1.2962	1.29679	0.0194272	2	0.000260699	41	0.494719	2.51931e-05	0.802076
2	1	0	0	0	1	86.3918	1.3082	1.30879	0.0197685	2	0.000265413	41	0.486288	2.58727e-05	0.822497
2	1	0	0	0	1	86.6318	1.32019	1.3208	0.0200929	2	0.00027021	41	0.478245	2.65386e-05	0.842553
2	1	0	1	0	1	86.8716	1.33218	1.33279	0.0204091	2	0.00027508	41	0.470436	2.7201e-05	0.862351
2	1	0	1	0	1	87.1115	1.34418	1.34475	0.0207072	2	0.000280026	41	0.463099	2.78461e-05	0.881655
2	1	0	0	0	1	87.3514	1.35617	1.35676	0.0210077	2	0.000285044	41	0.45579	2.85024e-05	0.900974
2	1	0	1	0	1	87.5912	1.36816	1.36876	0.0213004	2	0.000290131	41	0.44872	2.9155e-05	0.920035
2	1	0	1	0	1	87.8311	1.38015	1.38074	0.0215775	2	0.000295288	41	0.442048	2.97931e-05	0.938696
2	1	0	0	0	1	88.071	1.39215	1.39272	0.0218544	2	0.000300512	41	0.435448	3.04371e-05	0.957273
2	1	0	0	0	1	88.3109	1.40415	1.40473	0.0221415	2	0.000305803	41	0.428806	3.11029e-05	0.975924
2	1	0	1	0	1	88.5508	1.41614	1.41671	0.0224135	2	0.000311161	41	0.422536	3.17533e-05	0.994171
2	1	0	0	0	1	88.7906	1.42813	1.4287	0.0227198	2	0.000316587	41	0.415798	3.24598e-05	1.0129
2	1	0	0	0	1	89.0305	1.44013	1.44071	0.0230541	2	0.000322091	41	0.408677	3.32143e-05	1.03203
2	1	0	1	0	1	89.2704	1.45212	1.45271	0.0234121	2	0.000327678	41	0.401272	3.4011e-05	1.05144
2	1	0	0	0	1	89.5102	1.46412	1.46472	0.0238278	2	0.000333355	41	0.393017	3.49009e-05	1.0717
2	1	0	0	0	1	89.7502	1.47611	1.4767	0.0243094	2	0.000339144	41	0.383775	3.58978e-05	1.09293
2	1	0	1	0	1	89.99	1.4881	1.4887	0.0248792	2	0.000345056	41	0.373173	3.70376e-05	1.11552
2	1	0	1	0	1	90.1969	1.49845	1.49907	0.025477	2	0.000350273	41	0.362364	3.81917e-05	1.1367
2	1	0	1	0	1	90.2883	1.49679	1.4974	0.0213782	2	0.000352351	41	0.427002	3.20117e-05	1.07039
2	1	0	0	0	1	90.5282	1.4848	1.48536	0.0146593	2	0.000356575	41	0.537627	2.17743e-05	0.947737
2	1	0	1	0	1	90.768	1.47281	1.47338	0.0108006	2	0.000359575	41	0.604081	1.59133e-05	0.869297
2	1	0	1	0	1	91.0079	1.46082	1.46137	0.00828573	2	0.000361829	41	0.649076	1.21085e-05	0.812291
2	1	0	0	0	1	91.2478	1.44882	1.44937	0.00653807	2	0.00036358	41	0.681634	9.47611e-06	0.76774
2	1	0	1	0	1	91.4876	1.43683	1.43738	0.00526291	2	0.000364972	41	0.706344	7.56482e-06	0.731039
2	1	0	1	0	1	91.7276	1.42484	1.42539	0.00429168	2	0.000366099	41	0.725908	6.1173e-06	0.699479
2	1	0	0	0	1	91.9674	1.41284	1.4134	0.00354311	2	0.00036702	41	0.741669	5.00784e-06	0.671732
2	1	0	0	0	1	92.2073	1.40085	1.40142	0.00293019	2	0.000367779	41	0.75503	4.10642e-06	0.646387
2	1	0	1	0	1	92.4472	1.38885	1.38943	0.00243896	2	0.000368407	41	0.766247	3.38876e-06	0.623182
2	1	0	0	0	1	92.687	1.37686	1.37742	0.00202416	2	0.000368927	41	0.776063	2.78812e-06	0.601358
2	1	0	0	0	1	92.9269	1.36487	1.36543	0.00167402	2	0.000369355	41	0.784683	2.28576e-06	0.580748
2	1	0	1	0	1	93.1668	1.35287	1.35341	0.00137359	2	0.000369706	41	0.792388	1.85903e-06	0.561024
2	1	0	0	0	1	93.4066	1.34088	1.34143	0.00110719	2	0.000369989	41	0.799439	1.48521e-06	0.54199
2	1	0	0	0	1	93.6466	1.32889	1.32947	0.000875046	2	0.000370213	41	0.805825	1.16334e-06	0.523641
2	1	0	1	0	1	93.8864	1.31689	1.31745	0.000663676	2	0.000370384	41	0.811787	8.74358e-07	0.505661
2	1	0	1	0	1	94.1263	1.3049	1.30545	0.000472543	2	0.000370506	41	0.817369	6.16881e-07	0.488081
2	1	0	0	0	1	94.3662	1.2929	1.29346	0.000299455	2	0.000370585	41	0.822588	3.87334e-07	0.470874
2	1	0	1	0	1	94.606	1.28091	1.28147	0.000135058	2	0.000370623	41	0.82764	1.73072e-07	0.453831
2	1	0	1	0	1	94.8459	1.26892	1.26947	-2.09595e-05	2	0.000370624	41	0.832516	-2.66075e-08	0.436954
2	1	0	0	0	1	95.0858	1.25692	1.25749	-0.000158535	2	0.000370589	41	0.837045	-1.99356e-07	0.420441
2	1	0	1	0	1	95.3256	1.24493	1.24551	-0.000301005	2	0.000370521	41	0.841646	-3.74906e-07	0.403868
2	1	0	1	0	1	95.5656	1.23293	1.23348	-0.000435179	2	0.000370419	41	0.846098	-5.36784e-07	0.387381
2	1	0	0	0	1	95.8054	1.22094	1.22149	-0.000568089	2	0.000370285	41	0.850543	-6.93918e-07	0.370952
2	1	0	0	0	1	96.0453	1.20895	1.20949	-0.000699573	2	0.00037012	41	0.854954	-8.46129e-07	0.35454
2	1	0	1	0	1	96.2852	1.19695	1.1975	-0.00083079	2	0.000369923	41	0.859377	-9.94875e-07	0.338128
2	1	0	0	0	1	96.525	1.18496	1.18549	-0.000966122	2	0.000369694	41	0.863854	-1.14533e-06	0.321637
2	0	0	0	0	1	96.7649	1.17297	1.17349	-0.0011025	2	0.000369433	41	0.868386	-1.29377e-06	0.3051
2	0	0	1	0	1	97.0048	1.16097	1.16149	-0.00123844	2	0.000369139	41	0.872962	-1.43844e-06	0.288531
2	0	0	1	0	1	97.2447	1.14897	1.1495	-0.00138746	2	0.000368811	41	0.877801	-1.59488e-06	0.271702
2	0	0	0	0	1	97.4846	1.13698	1.13748	-0.00153501	2	0.000368448	41	0.882655	-1.74605e-06	0.254828
2	0	0	1	0	1	97.7244	1.12499	1.1255	-0.00169664	2	0.000368047	41	0.88782	-1.90958e-06	0.237684
2	0	0	1	0	1	97.9643	1.113	1.11351	-0.00186608	2	0.000367608	41	0.89318	-2.0779e-06	0.220331
2	0	0	0	0	1	98.2042	1.101	1.10153	-0.00203911	2	0.000367127	41	0.898663	-2.24615e-06	0.202868
2	0	0	1	0	1	98.444	1.08901	1.08956	-0.0022361	2	0.000366601	41	0.904648	-2.43635e-06	0.184908
2	0	0	1	0	1	98.684	1.07702	1.07757	-0.00244503	2	0.000366026	41	0.910956	-2.6347e-06	0.166617
2	0	0	0	0	1	98.9238	1.06502	1.06558	-0.0026701	2	0.0003654	41	0.917619	-2.84521e-06	0.14796
2	0	0	0	0	1	99.1637	1.05303	1.05357	-0.00291784	2	0.000364717	41	0.924815	-3.07416e-06	0.128758
2	0	0	1	0	1	99.4036	1.04103	1.04157	-0.0031898	2	0.000363971	41	0.932582	-3.32241e-06	0.10899
2	0	0	0	0	1	99.6434	1.02904	1.02958	-0.00348116	2	0.000363157	41	0.940822	-3.58415e-06	0.0887617
2	0	0	0	0	1	99.8833	1.01705	1.0176	-0.00381199	2	0.00036227	41	0.949917	-3.87908e-06	0.067683
2	0	0	1	0	1	100.123	1.00505	1.00562	-0.0041756	2	0.000361299	41	0.959746	-4.19906e-06	0.0458741
2	0	0	0	0	1	100.363	0.993059	0.993611	-0.00458237	2	0.000360236	41	0.970547	-4.5531e-06	0.0230632
2	0	0	0	0	1	100.603	0.981066	0.98162	-0.00502722	2	0.00035907	41	0.982211	-4.93482e-06	-0.00059104
2	0	0	1	0	1	100.843	0.969072	0.969614	-0.00553229	2	0.000357791	41	0.99516	-5.36418e-06	-0.0255455
2	0	0	1	0	1	101.083	0.957077	0.957619	-0.00610528	2	0.000356382	41	1.00954	-5.84653e-06	-0.0519174
2	0	0	0	0	1	101.323	0.945084	0.945645	-0.00674053	2	0.000354829	41	1.02526	-6.37416e-06	-0.0796111
2	0	0	1	0	1	101.562	0.93309	0.933649	-0.00748946	2	0.00035311	41	1.04321	-6.99253e-06	-0.109564
2	0	0	1	0	1	101.802	0.9211	0.921672	-0.00833755	2	0.000351199	41	1.06324	-7.68449e-06	-0.141567
2	0	0	0	0	1	102.042	0.909103	0.909666	-0.00932116	2	0.000349067	41	1.08596	-8.47914e-06	-0.176291
2	0	0	0	0	1	102.282	0.897105	0.897671	-0.0104845	2	0.000346679	41	1.11212	-9.41164e-06	-0.214453
2	0	0	1	0	1	102.522	0.885115	0.885652	-0.011837	2	0.000343988	41	1.14196	-1.04835e-05	-0.25631
2	0	0	0	0	1	102.762	0.873121	0.873666	-0.0134422	2	0.000340944	41	1.17661	-1.1744e-05	-0.302942
2	0	0	0	0	1	103.002	0.861128	0.861665	-0.0153237	2	0.000337481	41	1.2165	-1.32039e-05	-0.354838
2	0	0	1	0	1	103.242	0.849134	0.849668	-0.017534	2	0.000333526	41	1.26261	-1.48981e-05	-0.41294
2	0	0	0	0	1	103.481	0.83714	0.837665	-0.0201305	2	0.000328996	41	1.31588	-1.68627e-05	-0.478213
2	0	0	0	0	1	103.721	0.825151	0.825653	-0.0230871	2	0.000323798	41	1.37604	-1.90619e-05	-0.550392
2	0	0	1	0	1	103.961	0.813152	0.813668	-0.0263805	2	0.000317845	41	1.4428	-2.14649e-05	-0.629132
2	0	0	1	0	1	104.201	0.801155	0.801666	-0.0298143	2	0.000311082	41	1.51304	-2.39011e-05	-0.711373
2	0	0	0	0	1	104.441	0.789165	0.789706	-0.0330565	2	0.000303514	41	1.58141	-2.61049e-05	-0.7917
2	0	0	1	0	1	104.681	0.777171	0.7777	-0.0356845	2	0.000295236	41	1.64094	-2.77518e-05	-0.863236
2	0	0	1	0	1	104.921	0.765179	0.765713	-0.0371041	2	0.000286466	41	1.68199	-2.84111e-05	-0.916281
2	0	0	0	0	1	105.161	0.753183	0.753725	-0.0368848	2	0.000277551	41	1.69693	-2.7801e-05	-0.943207
2	0	0	1	0	1	105.4	0.74119	0.741717	-0.0349719	2	0.000268904	41	1.68416	-2.59392e-05	-0.942448
2	0	0	1	0	1	105.64	0.729196	0.729711	-0.0316798	2	0.000260886	41	1.64792	-2.31171e-05	-0.918212
2	0	0	0	0	1	105.88	0.717202	0.717752	-0.0276434	2	0.000253764	41	1.59763	-1.98411e-05	-0.879878
2	0	0	0	0	1	106.12	0.705206	0.70575	-0.023525	2	0.000247628	41	1.54363	-1.66027e-05	-0.837878
2	0	0	1	0	1	106.36	0.693215	0.693755	-0.0197052	2	0.000242446	41	1.49207	-1.36706e-05	-0.798315
2	0	0	0	0	1	106.6	0.681221	0.681761	-0.0164129	2	0.00023812	41	1.44686	-1.11897e-05	-0.765099
2	0	0	0	0	1	106.84	0.66923	0.669774	-0.0136695	2	0.000234514	41	1.40876	-9.15547e-06	-0.738984
2	0	0	1	0	1	107.08	0.657233	0.657763	-0.0114406	2	0.000231501	41	1.37748	-7.52521e-06	-0.71972
2	0	0	0	0	1	107.319	0.645239	0.645787	-0.00963595	2	0.00022897	41	1.35195	-6.22278e-06	-0.706161
2	0	0	0	0	1	107.559	0.633246	0.633789	-0.00818554	2	0.000226827	41	1.33123	-5.1879e-06	-0.697443
2	0	0	1	0	1	107.799	0.621252	0.621775	-0.00701704	2	0.000224996	41	1.31445	-4.36303e-06	-0.692672
2	0	0	1	0	1	108.039	0.609257	0.609789	-0.00606831	2	0.000223417	41	1.3007	-3.70039e-06	-0.690911
2	0	0	0	0	1	108.279	0.597264	0.597795	-0.00528905	2	0.000222045	41	1.28926	-3.16177e-06	-0.69146
2	0	0	1	0	1	108.519	0.58527	0.585792	-0.00465144	2	0.000220842	41	1.27979	-2.72478e-06	-0.693996
2	0	0	1	0	1	108.759	0.57328	0.573801	-0.00412595	2	0.000219777	41	1.27194	-2.36747e-06	-0.698136
2	0	0	0	0	1	108.999	0.561283	0.561778	-0.00368688	2	0.000218827	41	1.26523	-2.07121e-06	-0.703452
2	0	0	0	0	1	109.238	0.549285	0.549773	-0.00332794	2	0.000217972	41	1.25974	-1.82961e-06	-0.709966
2	0	0	1	0	1	109.478	0.537295	0.53778	-0.00302733	2	0.000217196	41	1.25513	-1.62804e-06	-0.717348
2	0	0	0	0	1	109.718	0.525302	0.525792	-0.00278394	2	0.000216484	41	1.25135	-1.46377e-06	-0.725558
2	0	0	0	0	1	109.958	0.513308	0.513789	-0.00258941	2	0.000215824	41	1.24835	-1.33041e-06	-0.734563
2	0	0	1	0	1	110.198	0.501314	0.50179	-0.00242453	2	0.000215208	41	1.24581	-1.21661e-06	-0.744023
2	0	0	0	0	1	110.438	0.48932	0.489814	-0.00229145	2	0.000214627	41	1.24377	-1.12239e-06	-0.753954
2	0	0	0	0	1	110.678	0.477326	0.477822	-0.00218898	2	0.000214073	41	1.24228	-1.04594e-06	-0.764461
2	0	0	1	0	1	110.918	0.465333	0.465832	-0.0021096	2	0.000213541	41	1.2412	-9.82719e-07	-0.775368
2	0	0	1	0	1	111.157	0.453336	0.453838	-0.00205493	2	0.000213026	41	1.24054	-9.32607e-07	-0.786706
2	0	0	0	0	1	111.397	0.441345	0.441837	-0.00201758	2	0.000212521	41	1.24027	-8.91441e-07	-0.79843
2	0	0	1	0	1	111.637	0.429351	0.429858	-0.00200816	2	0.000212022	41	1.24051	-8.63223e-07	-0.810655
2	0	0	1	0	1	111.877	0.417359	0.417855	-0.00202604	2	0.000211523	41	1.24129	-8.46589e-07	-0.823432
2	0	0	0	0	1	112.117	0.405364	0.405875	-0.00207579	2	0.000211016	41	1.24271	-8.4251e-07	-0.836834
2	0	0	1	0	1	112.357	0.39337	0.393863	-0.00216335	2	0.000210494	41	1.24495	-8.52061e-07	-0.851088
2	0	0	1	0	1	112.597	0.381376	0.381876	-0.00230084	2	0.000209944	41	1.24819	-8.78634e-07	-0.866311
2	0	0	0	0	1	112.837	0.369382	0.369876	-0.00250529	2	0.000209355	41	1.25277	-9.26648e-07	-0.882894
2	0	0	0	0	1	113.076	0.357386	0.357878	-0.002809	2	0.000208707	41	1.25933	-1.00528e-06	-0.901455
2	0	0	1	0	1	113.316	0.345395	0.345882	-0.00322652	2	0.000207971	41	1.26825	-1.11599e-06	-0.922365
2	0	0	0	0	1	113.556	0.333401	0.3339	-0.00379505	2	0.000207119	41	1.28024	-1.26717e-06	-0.946336
2	0	0	0	0	1	113.796	0.32141	0.32193	-0.0045276	2	0.00020611	41	1.29577	-1.45757e-06	-0.973839
2	0	0	1	0	1	114.036	0.309413	0.309924	-0.00539415	2	0.000204909	41	1.31437	-1.67178e-06	-1.00445
2	0	0	0	0	1	114.276	0.29742	0.297913	-0.00643628	2	0.000203479	41	1.33672	-1.91745e-06	-1.0388
2	0	0	0	0	1	114.516	0.285426	0.285932	-0.00764574	2	0.000201775	41	1.36274	-2.18616e-06	-1.07681
2	0	0	1	0	1	114.756	0.273432	0.273913	-0.00894558	2	0.000199769	41	1.39119	-2.45031e-06	-1.11728
2	0	0	1	0	1	114.995	0.261437	0.261917	-0.0103425	2	0.000197444	41	1.42191	-2.70887e-06	-1.15999
2	0	0	0	0	1	115.235	0.249444	0.249907	-0.0116871	2	0.000194788	41	1.45245	-2.92068e-06	-1.20254
2	0	0	1	0	1	115.475	0.237451	0.237909	-0.01283	2	0.000191826	41	1.48029	-3.05237e-06	-1.24238
2	0	0	1	0	1	115.715	0.225461	0.225914	-0.0133946	2	0.000188656	41	1.49876	-3.02602e-06	-1.27285
2	0	0	0	0	1	115.955	0.213463	0.213922	-0.0134686	2	0.000185416	41	1.50875	-2.88124e-06	-1.29483
2	0	0	0	0	1	116.195	0.201465	0.201904	-0.0135928	2	0.000182161	41	1.51899	-2.74445e-06	-1.31709
2	0	0	1	0	1	116.435	0.189476	0.189929	-0.01401	2	0.000178844	41	1.53389	-2.66091e-06	-1.34396
2	0	0	0	0	1	116.675	0.177482	0.177973	-0.01489	2	0.000175375	41	1.55667	-2.65001e-06	-1.3787
2	0	0	0	0	1	116.914	0.165488	0.165964	-0.0163878	2	0.000171621	41	1.59034	-2.71979e-06	-1.42437
2	0	0	1	0	1	117.154	0.153494	0.153958	-0.0183509	2	0.000167451	41	1.63284	-2.82528e-06	-1.47888
2	0	0	0	0	1	117.394	0.1415	0.14198	-0.020903	2	0.000162733	41	1.68632	-2.96781e-06	-1.54434
2	0	0	0	0	1	117.634	0.129507	0.129994	-0.0237546	2	0.000157356	41	1.74638	-3.08795e-06	-1.61639
2	0	0	1	0	1	117.874	0.117513	0.117984	-0.0265082	2	0.000151299	41	1.80651	-3.12756e-06	-1.68853
2	0	0	1	0	1	118.114	0.105516	0.106014	-0.0283233	2	0.000144693	41	1.85275	-3.00265e-06	-1.74673
2	0	0	0	0	1	118.221	0.0999719	0.100484	-0.0295598	2	0.00014162	41	1.87998	-2.97028e-06	-1.7795